time,ax,ay,az
0.0,-129.0,-61.0,-940.0
0.125,-237.0,-96.0,-965.0
0.809,-249.0,-81.0,-962.0
0.934,-165.0,-66.0,-948.0
1.058,-37.0,-74.0,-930.0
1.181,137.0,-58.0,-856.0
1.304,388.0,-77.0,-750.0
1.428,637.0,-70.0,-634.0
1.553,812.0,-73.0,-545.0
1.677,881.0,-58.0,-468.0
1.801,908.0,-49.0,-400.0
2.065,877.0,-53.0,-402.0
2.189,814.0,-60.0,-505.0
2.313,708.0,-65.0,-640.0
2.437,586.0,-68.0,-773.0
2.561,441.0,-69.0,-884.0
2.688,245.0,-85.0,-976.0
2.812,49.0,-73.0,-1008.0
2.937,-117.0,-62.0,-1004.0
3.481,-113.0,-64.0,-992.0
3.611,-46.0,-57.0,-988.0
3.728,54.0,-64.0,-964.0
3.853,154.0,-70.0,-928.0
3.976,346.0,-89.0,-826.0
4.101,554.0,-78.0,-676.0
4.225,753.0,-60.0,-520.0
4.628,876.0,-24.0,-421.0
4.753,862.0,-24.0,-460.0
5.016,806.0,-41.0,-542.0
5.142,678.0,-49.0,-644.0
5.266,469.0,-44.0,-794.0
5.389,176.0,-26.0,-905.0
5.512,-30.0,-8.0,-954.0
6.058,172.0,4.0,-1020.0
6.18,404.0,-10.0,-937.0
6.304,729.0,-41.0,-828.0
6.428,697.0,-69.0,-645.0
6.553,805.0,-62.0,-533.0
6.676,862.0,-38.0,-429.0
6.802,926.0,-16.0,-345.0
6.945,932.0,-9.0,-322.0
7.068,904.0,-6.0,-333.0
7.192,873.0,-16.0,-386.0
7.316,826.0,-4.0,-480.0
7.44,721.0,-5.0,-620.0
7.564,560.0,-6.0,-766.0
7.689,381.0,-18.0,-888.0
7.812,166.0,-24.0,-940.0
7.936,1.0,-28.0,-972.0
8.06,-117.0,-30.0,-969.0
8.324,-92.0,-40.0,-937.0
8.448,28.0,-44.0,-936.0
8.573,174.0,-40.0,-938.0
8.697,292.0,-38.0,-920.0
8.82,384.0,-41.0,-869.0
8.944,449.0,-41.0,-810.0
9.068,540.0,-49.0,-768.0
9.192,598.0,-61.0,-720.0
9.316,693.0,-64.0,-641.0
9.44,754.0,-62.0,-566.0
9.704,740.0,-53.0,-604.0
9.828,584.0,-53.0,-748.0
9.952,314.0,-38.0,-886.0
10.076,110.0,-38.0,-950.0
10.2,-61.0,-26.0,-961.0
10.324,-201.0,-20.0,-953.0
10.728,-269.0,-26.0,-901.0
10.856,-120.0,-42.0,-885.0
10.98,156.0,-56.0,-832.0
11.104,442.0,-60.0,-716.0
11.228,680.0,-44.0,-582.0
11.493,874.0,-28.0,-485.0
11.616,750.0,-52.0,-581.0
11.784,417.0,-46.0,-757.0
11.864,5.0,-37.0,-896.0
12.689,-157.0,-50.0,-930.0
12.812,52.0,-73.0,-889.0
12.937,268.0,-92.0,-821.0
13.06,492.0,-81.0,-778.0
13.184,564.0,-72.0,-704.0
13.312,665.0,-50.0,-598.0
13.436,754.0,-30.0,-490.0
13.56,840.0,-12.0,-396.0
14.245,924.0,24.0,-226.0
14.368,944.0,17.0,-253.0
14.492,830.0,-22.0,-409.0
14.616,669.0,-49.0,-654.0
14.74,381.0,-70.0,-877.0
14.864,177.0,-45.0,-953.0
14.989,-33.0,-65.0,-992.0
15.116,-64.0,-60.0,-989.0
15.38,-81.0,-52.0,-982.0
15.504,46.0,-42.0,-990.0
15.628,192.0,-30.0,-908.0
15.752,489.0,-33.0,-830.0
15.878,664.0,-18.0,-644.0
16.0,840.0,-6.0,-480.0
16.124,926.0,22.0,-321.0
16.388,914.0,13.0,-314.0
16.512,850.0,-8.0,-432.0
16.636,726.0,-41.0,-588.0
16.76,522.0,-54.0,-744.0
16.884,306.0,-48.0,-874.0
17.009,96.0,-25.0,-940.0
17.132,-34.0,-25.0,-958.0
17.396,-73.0,-34.0,-986.0
17.52,-82.0,-33.0,-1001.0
17.644,-12.0,-46.0,-932.0
17.768,162.0,-65.0,-828.0
17.892,462.0,-64.0,-674.0
18.016,670.0,-52.0,-577.0
18.14,788.0,-28.0,-460.0
18.266,856.0,-12.0,-384.0
18.528,908.0,-8.0,-350.0
18.652,886.0,-24.0,-426.0
18.776,760.0,-45.0,-566.0
18.9,564.0,-50.0,-717.0
19.028,342.0,-48.0,-872.0
19.152,145.0,-50.0,-958.0
19.276,-68.0,-62.0,-986.0
19.4,-226.0,-74.0,-982.0
19.664,-229.0,-32.0,-962.0
19.788,-125.0,-10.0,-940.0
19.912,12.0,8.0,-925.0
20.036,180.0,33.0,-880.0
20.16,373.0,66.0,-822.0
20.284,570.0,98.0,-702.0
20.408,754.0,120.0,-590.0
20.532,833.0,145.0,-450.0
20.656,877.0,165.0,-378.0
20.78,885.0,184.0,-334.0
20.905,853.0,152.0,-448.0
21.028,742.0,86.0,-606.0
21.152,550.0,26.0,-813.0
21.276,316.0,4.0,-932.0
21.4,142.0,13.0,-1001.0
21.524,-36.0,12.0,-1002.0
21.65,-158.0,6.0,-968.0
21.774,-285.0,2.0,-936.0
22.036,-274.0,2.0,-972.0
22.16,-134.0,0.0,-1006.0
22.284,6.0,8.0,-1000.0
22.408,149.0,14.0,-962.0
22.532,318.0,28.0,-909.0
22.656,497.0,45.0,-814.0
22.78,640.0,61.0,-716.0
22.907,714.0,112.0,-610.0
23.032,770.0,138.0,-577.0
23.156,842.0,170.0,-562.0
23.284,578.0,112.0,-716.0
23.408,324.0,105.0,-842.0
23.532,-8.0,77.0,-986.0
23.656,-96.0,124.0,-972.0
23.785,-230.0,130.0,-960.0
23.908,-366.0,118.0,-922.0
24.032,-421.0,78.0,-921.0
24.156,-357.0,28.0,-902.0
24.28,-73.0,9.0,-910.0
24.404,240.0,1.0,-849.0
24.528,544.0,-22.0,-773.0
24.652,712.0,-26.0,-625.0
24.776,826.0,-34.0,-501.0
24.9,884.0,-14.0,-410.0
25.164,884.0,-24.0,-416.0
25.288,793.0,-50.0,-525.0
25.412,692.0,-81.0,-680.0
25.536,512.0,-77.0,-817.0
25.66,293.0,-24.0,-924.0
25.784,69.0,42.0,-965.0
25.908,-105.0,98.0,-988.0
26.452,-182.0,88.0,-973.0
26.576,-101.0,90.0,-973.0
26.7,53.0,69.0,-952.0
26.824,213.0,60.0,-904.0
26.952,413.0,17.0,-814.0
27.076,606.0,-13.0,-689.0
27.2,782.0,-61.0,-573.0
27.324,882.0,-90.0,-416.0
27.448,922.0,-121.0,-281.0
27.712,913.0,-161.0,-257.0
27.836,834.0,-156.0,-382.0
27.96,698.0,-145.0,-584.0
28.084,516.0,-114.0,-769.0
28.208,274.0,-46.0,-917.0
28.332,61.0,14.0,-966.0
28.456,-124.0,90.0,-973.0
28.58,-200.0,114.0,-968.0
28.844,-205.0,129.0,-969.0
28.968,-121.0,104.0,-977.0
29.092,-18.0,76.0,-986.0
29.216,104.0,36.0,-957.0
29.34,229.0,-4.0,-928.0
29.464,376.0,-50.0,-870.0
29.588,541.0,-85.0,-793.0
29.712,686.0,-101.0,-666.0
29.836,802.0,-110.0,-513.0
29.96,856.0,-117.0,-398.0
30.224,882.0,-114.0,-350.0
30.348,808.0,-101.0,-442.0
30.472,617.0,-48.0,-656.0
30.596,348.0,-5.0,-828.0
30.72,62.0,100.0,-952.0
30.848,-130.0,156.0,-944.0
31.252,-194.0,256.0,-969.0
31.376,-56.0,234.0,-972.0
31.5,106.0,201.0,-946.0
31.624,321.0,148.0,-882.0
31.748,485.0,109.0,-792.0
31.872,673.0,62.0,-670.0
31.996,793.0,25.0,-524.0
32.12,873.0,-5.0,-402.0
32.384,893.0,-37.0,-381.0
32.509,848.0,-30.0,-474.0
32.632,746.0,-12.0,-621.0
32.756,512.0,46.0,-772.0
32.88,246.0,129.0,-882.0
33.004,4.0,185.0,-937.0
33.128,-126.0,208.0,-966.0
33.252,-197.0,190.0,-969.0
33.376,-209.0,166.0,-970.0
33.5,-180.0,125.0,-970.0
33.624,-86.0,76.0,-970.0
33.748,25.0,49.0,-970.0
33.872,221.0,-5.0,-929.0
33.996,486.0,-45.0,-801.0
34.122,721.0,-117.0,-597.0
34.245,868.0,-158.0,-409.0
34.368,900.0,-216.0,-290.0
34.632,929.0,-250.0,-254.0
34.758,872.0,-244.0,-350.0
34.884,744.0,-244.0,-521.0
35.008,572.0,-224.0,-698.0
35.133,404.0,-198.0,-828.0
35.256,257.0,-140.0,-900.0
35.38,97.0,-61.0,-940.0
35.504,-117.0,73.0,-1042.0
35.628,-181.0,100.0,-1050.0
35.752,-202.0,86.0,-1066.0
35.877,-65.0,-9.0,-982.0
36.0,-53.0,13.0,-972.0
36.265,-404.0,120.0,-1334.0
36.388,-333.0,92.0,-1336.0
36.512,-192.0,62.0,-1304.0
36.636,354.0,6.0,-900.0
36.76,514.0,4.0,-820.0
36.884,650.0,54.0,-732.0
37.009,730.0,33.0,-625.0
37.132,820.0,25.0,-521.0
37.256,862.0,-24.0,-424.0
37.52,842.0,-48.0,-480.0
37.644,710.0,-50.0,-609.0
37.768,538.0,-61.0,-773.0
37.892,281.0,-65.0,-876.0
38.016,102.0,-28.0,-920.0
38.28,-128.0,-18.0,-934.0
38.404,-226.0,-13.0,-956.0
38.671,-226.0,10.0,-961.0
38.796,-24.0,-6.0,-968.0
38.92,230.0,13.0,-941.0
39.044,493.0,-9.0,-817.0
39.168,698.0,-32.0,-604.0
39.292,860.0,-46.0,-344.0
39.416,945.0,-21.0,-181.0
39.68,950.0,-6.0,-153.0
39.804,945.0,-33.0,-236.0
39.928,910.0,-73.0,-373.0
40.052,774.0,-78.0,-556.0
40.176,529.0,-82.0,-726.0
40.3,233.0,-36.0,-880.0
40.424,1.0,-4.0,-949.0
40.548,-146.0,50.0,-989.0
40.812,-185.0,84.0,-992.0
40.936,-72.0,80.0,-930.0
41.06,138.0,77.0,-873.0
41.184,408.0,53.0,-757.0
41.308,672.0,14.0,-622.0
41.432,833.0,-28.0,-410.0
41.556,921.0,-54.0,-214.0
41.96,950.0,-56.0,-160.0
42.084,874.0,-53.0,-345.0
42.208,676.0,-49.0,-585.0
42.332,438.0,-52.0,-800.0
42.456,216.0,-60.0,-913.0
42.58,84.0,-41.0,-970.0
42.708,-26.0,-12.0,-989.0
43.112,-54.0,29.0,-982.0
43.236,102.0,14.0,-953.0
43.359,318.0,-17.0,-893.0
43.484,528.0,-49.0,-793.0
43.608,701.0,-52.0,-600.0
43.732,846.0,-58.0,-392.0
43.856,930.0,-61.0,-190.0
44.12,945.0,-62.0,-141.0
44.244,905.0,-72.0,-286.0
44.368,749.0,-74.0,-493.0
44.492,542.0,-102.0,-764.0
44.616,321.0,-102.0,-910.0
44.74,190.0,-102.0,-992.0
44.864,84.0,-77.0,-966.0
44.988,-12.0,-48.0,-981.0
45.252,-64.0,-2.0,-993.0
45.376,57.0,33.0,-844.0
45.5,270.0,44.0,-805.0
45.624,442.0,44.0,-738.0
45.748,594.0,2.0,-789.0
45.872,709.0,-21.0,-634.0
45.996,826.0,-46.0,-489.0
46.12,888.0,-46.0,-356.0
46.384,889.0,-41.0,-349.0
46.508,838.0,-84.0,-458.0
46.635,690.0,-86.0,-596.0
46.76,472.0,-61.0,-770.0
46.884,240.0,-14.0,-889.0
47.008,36.0,9.0,-964.0
47.132,-117.0,28.0,-989.0
47.676,-112.0,77.0,-990.0
47.8,-16.0,88.0,-996.0
47.924,146.0,86.0,-960.0
48.048,377.0,44.0,-850.0
48.172,636.0,-36.0,-670.0
48.296,822.0,-85.0,-478.0
48.42,908.0,-86.0,-304.0
48.544,928.0,-81.0,-182.0
48.808,908.0,-98.0,-262.0
48.932,766.0,-101.0,-485.0
49.056,556.0,-68.0,-737.0
49.18,316.0,-53.0,-880.0
49.308,130.0,-45.0,-956.0
49.432,-28.0,-57.0,-966.0
49.556,-133.0,-57.0,-981.0
49.82,-13.0,-46.0,-957.0
49.944,196.0,-49.0,-914.0
50.067,413.0,-56.0,-853.0
50.192,545.0,-57.0,-786.0
50.316,684.0,-93.0,-645.0
50.44,816.0,-145.0,-478.0
50.564,897.0,-164.0,-316.0
50.692,926.0,-169.0,-232.0
51.096,928.0,-170.0,-185.0
51.22,876.0,-150.0,-294.0
51.344,758.0,-134.0,-490.0
51.467,538.0,-100.0,-701.0
51.592,297.0,-68.0,-865.0
51.716,73.0,-30.0,-954.0
51.84,-49.0,-8.0,-988.0
51.964,-77.0,-9.0,-994.0
52.368,49.0,-42.0,-970.0
52.492,185.0,-44.0,-962.0
52.616,356.0,-48.0,-921.0
52.74,508.0,-61.0,-837.0
52.864,658.0,-108.0,-676.0
52.988,782.0,-145.0,-532.0
53.112,858.0,-162.0,-410.0
53.516,862.0,-145.0,-404.0
53.641,809.0,-141.0,-501.0
53.764,648.0,-129.0,-662.0
53.887,425.0,-98.0,-822.0
54.012,185.0,-49.0,-936.0
54.136,52.0,-17.0,-997.0
54.26,-50.0,8.0,-1009.0
54.384,-101.0,20.0,-1010.0
54.647,-117.0,68.0,-1013.0
54.775,-57.0,24.0,-1004.0
54.9,4.0,25.0,-992.0
55.164,110.0,32.0,-990.0
55.287,170.0,8.0,-948.0
55.412,354.0,-16.0,-918.0
55.535,521.0,-66.0,-814.0
55.66,650.0,-132.0,-720.0
55.925,698.0,-178.0,-589.0
56.188,700.0,-201.0,-636.0
56.312,558.0,-196.0,-734.0
56.436,342.0,-177.0,-852.0
56.56,100.0,-94.0,-918.0
56.684,-76.0,-61.0,-977.0
57.087,-186.0,-5.0,-998.0
57.211,-134.0,-22.0,-997.0
57.336,-41.0,-54.0,-982.0
57.46,112.0,-130.0,-936.0
57.584,297.0,-220.0,-833.0
57.708,510.0,-310.0,-672.0
57.832,677.0,-337.0,-514.0
57.956,789.0,-326.0,-402.0
58.36,797.0,-266.0,-437.0
58.483,688.0,-234.0,-569.0
58.607,514.0,-198.0,-709.0
58.732,276.0,-140.0,-840.0
58.859,29.0,-70.0,-945.0
58.984,-138.0,-13.0,-1005.0
59.108,-186.0,18.0,-1017.0
59.372,-116.0,-8.0,-985.0
59.776,-46.0,29.0,-985.0
59.9,48.0,18.0,-989.0
60.024,246.0,-18.0,-924.0
60.148,497.0,-74.0,-758.0
60.272,722.0,-108.0,-554.0
60.396,861.0,-108.0,-372.0
60.519,922.0,-112.0,-252.0
60.787,940.0,-142.0,-233.0
60.908,845.0,-146.0,-374.0
61.032,662.0,-133.0,-581.0
61.156,394.0,-62.0,-790.0
61.279,157.0,-32.0,-918.0
61.404,-56.0,12.0,-974.0
61.528,-186.0,29.0,-1000.0
61.651,-217.0,52.0,-1002.0
61.776,-149.0,34.0,-1020.0
61.899,-49.0,21.0,-1013.0
62.023,80.0,-10.0,-1008.0
62.148,212.0,-32.0,-957.0
62.272,372.0,-60.0,-896.0
62.396,524.0,-77.0,-805.0
62.52,648.0,-74.0,-706.0
62.644,750.0,-76.0,-596.0
62.768,821.0,-73.0,-474.0
63.036,860.0,-100.0,-444.0
63.16,793.0,-97.0,-545.0
63.284,689.0,-94.0,-665.0
63.408,570.0,-104.0,-760.0
63.532,448.0,-100.0,-841.0
63.656,340.0,-102.0,-896.0
63.78,230.0,-92.0,-928.0
63.904,142.0,-84.0,-954.0
64.168,90.0,-52.0,-980.0
64.292,168.0,-90.0,-962.0
64.415,322.0,-125.0,-900.0
64.54,506.0,-149.0,-798.0
64.663,676.0,-129.0,-665.0
64.788,817.0,-90.0,-554.0
64.912,869.0,-78.0,-462.0
65.035,892.0,-76.0,-408.0
65.16,868.0,-102.0,-401.0
65.283,820.0,-102.0,-477.0
65.408,694.0,-98.0,-625.0
65.532,514.0,-80.0,-794.0
65.656,277.0,-48.0,-914.0
65.78,93.0,-26.0,-976.0
65.904,-52.0,-14.0,-981.0
66.028,-102.0,13.0,-989.0
66.153,-126.0,-6.0,-968.0
66.416,-29.0,17.0,-934.0
66.54,174.0,49.0,-894.0
66.664,430.0,17.0,-829.0
66.792,598.0,-109.0,-700.0
66.915,693.0,-210.0,-608.0
67.039,749.0,-304.0,-506.0
67.164,794.0,-309.0,-409.0
67.427,737.0,-305.0,-464.0
67.552,557.0,-257.0,-666.0
67.676,270.0,-186.0,-858.0
67.8,0.0,-140.0,-934.0
67.924,-160.0,-130.0,-948.0
68.047,-182.0,-144.0,-972.0
68.176,-113.0,-138.0,-969.0
68.3,-6.0,-124.0,-978.0
68.424,126.0,-80.0,-930.0
68.548,290.0,-70.0,-864.0
68.672,500.0,-88.0,-738.0
68.796,680.0,-133.0,-605.0
68.92,805.0,-157.0,-454.0
69.044,857.0,-176.0,-348.0
69.307,897.0,-201.0,-341.0
69.431,790.0,-212.0,-477.0
69.556,600.0,-205.0,-660.0
69.68,353.0,-221.0,-814.0
69.803,165.0,-224.0,-913.0
69.927,34.0,-230.0,-956.0
70.191,86.0,-225.0,-945.0
70.316,290.0,-230.0,-888.0
70.44,521.0,-226.0,-777.0
70.564,700.0,-230.0,-632.0
70.691,802.0,-224.0,-521.0
70.816,838.0,-208.0,-438.0
70.94,853.0,-197.0,-384.0
71.204,770.0,-222.0,-458.0
71.327,577.0,-214.0,-645.0
71.451,308.0,-190.0,-810.0
71.576,90.0,-148.0,-926.0
71.699,-53.0,-109.0,-968.0
71.963,-116.0,-50.0,-997.0
72.087,97.0,-96.0,-1012.0
72.211,349.0,-126.0,-942.0
72.335,612.0,-174.0,-816.0
72.459,713.0,-169.0,-630.0
72.584,770.0,-192.0,-533.0
73.128,732.0,-337.0,-557.0
73.252,581.0,-344.0,-658.0
73.375,381.0,-376.0,-780.0
73.5,204.0,-240.0,-872.0
73.624,68.0,-178.0,-957.0
73.871,32.0,-110.0,-956.0
73.995,65.0,-182.0,-920.0
74.119,272.0,-208.0,-865.0
74.244,405.0,-154.0,-812.0
74.367,650.0,-93.0,-736.0
74.492,709.0,-81.0,-617.0
74.616,825.0,-141.0,-480.0
74.744,872.0,-173.0,-313.0
75.007,861.0,-194.0,-282.0
75.132,696.0,-174.0,-542.0
75.255,444.0,-122.0,-805.0
75.38,194.0,-89.0,-954.0
75.504,-14.0,-53.0,-956.0
75.627,-133.0,-54.0,-961.0
76.452,-108.0,-4.0,-969.0
76.576,44.0,-4.0,-929.0
76.7,282.0,-48.0,-870.0
76.824,456.0,-73.0,-805.0
76.947,601.0,-82.0,-738.0
77.072,665.0,-62.0,-669.0
77.196,658.0,-74.0,-660.0
77.32,522.0,-88.0,-754.0
77.444,302.0,-62.0,-892.0
77.567,109.0,-10.0,-969.0
77.831,-98.0,37.0,-974.0
77.955,-165.0,41.0,-994.0
78.22,-161.0,32.0,-992.0
78.344,-49.0,9.0,-980.0
78.467,129.0,-45.0,-954.0
78.591,332.0,-108.0,-900.0
78.716,490.0,-132.0,-832.0
78.843,616.0,-110.0,-741.0
78.968,702.0,-76.0,-629.0
79.232,726.0,-92.0,-584.0
79.355,526.0,-53.0,-825.0
79.481,300.0,-32.0,-981.0
79.604,88.0,-10.0,-1060.0
79.727,-10.0,-29.0,-986.0
79.851,-92.0,-16.0,-980.0
79.975,-78.0,17.0,-992.0
80.099,12.0,4.0,-1010.0
80.224,161.0,-48.0,-1014.0
80.348,313.0,-130.0,-944.0
80.473,430.0,-173.0,-834.0
80.595,520.0,-168.0,-741.0
80.719,589.0,-173.0,-686.0
81.123,644.0,-216.0,-674.0
81.247,577.0,-216.0,-725.0
81.371,424.0,-217.0,-800.0
81.496,260.0,-160.0,-898.0
81.62,100.0,-141.0,-961.0
81.743,-80.0,-106.0,-1036.0
81.867,-145.0,-84.0,-1021.0
81.991,-128.0,-94.0,-1010.0
82.115,1.0,-138.0,-946.0
82.24,94.0,-200.0,-961.0
82.363,224.0,-244.0,-916.0
82.487,349.0,-266.0,-834.0
82.611,513.0,-336.0,-714.0
82.748,606.0,-345.0,-633.0
82.864,700.0,-364.0,-576.0
82.987,728.0,-333.0,-586.0
83.112,612.0,-332.0,-682.0
83.235,408.0,-296.0,-829.0
83.36,174.0,-245.0,-937.0
83.483,54.0,-182.0,-966.0
83.887,104.0,-169.0,-949.0
84.011,278.0,-217.0,-874.0
84.135,480.0,-276.0,-757.0
84.26,637.0,-294.0,-654.0
84.384,725.0,-288.0,-581.0
84.507,765.0,-280.0,-533.0
84.632,753.0,-289.0,-522.0
84.756,670.0,-289.0,-609.0
84.879,517.0,-274.0,-733.0
85.003,310.0,-229.0,-865.0
85.128,154.0,-197.0,-794.0
85.252,12.0,-138.0,-830.0
85.376,-61.0,-101.0,-848.0
85.919,-53.0,-80.0,-1001.0
86.044,97.0,-129.0,-970.0
86.169,298.0,-186.0,-897.0
86.291,472.0,-265.0,-792.0
86.415,582.0,-301.0,-704.0
86.54,621.0,-302.0,-657.0
86.664,658.0,-286.0,-654.0
86.792,606.0,-234.0,-742.0
86.915,470.0,-200.0,-888.0
87.04,294.0,-157.0,-960.0
87.163,137.0,-141.0,-980.0
87.288,49.0,-114.0,-949.0
87.692,29.0,-74.0,-981.0
87.815,105.0,-102.0,-976.0
87.94,220.0,-102.0,-924.0
88.063,388.0,-178.0,-837.0
88.187,528.0,-224.0,-741.0
88.312,641.0,-285.0,-682.0
88.435,684.0,-241.0,-633.0
88.699,717.0,-237.0,-590.0
88.823,648.0,-233.0,-676.0
88.947,510.0,-193.0,-788.0
89.071,360.0,-156.0,-888.0
89.196,264.0,-152.0,-925.0
89.739,169.0,-100.0,-969.0
90.144,122.0,-80.0,-954.0
90.267,193.0,-64.0,-940.0
90.392,305.0,-42.0,-916.0
90.516,426.0,-61.0,-882.0
90.639,560.0,-129.0,-781.0
90.764,668.0,-216.0,-661.0
90.89,740.0,-186.0,-572.0
91.155,677.0,-125.0,-657.0
91.279,486.0,-138.0,-818.0
91.403,192.0,-101.0,-945.0
91.528,-65.0,-40.0,-996.0
91.931,-182.0,9.0,-981.0
92.055,-144.0,-9.0,-981.0
92.179,-82.0,-46.0,-961.0
92.303,33.0,-44.0,-913.0
92.427,210.0,-88.0,-822.0
92.551,426.0,-172.0,-766.0
92.676,573.0,-246.0,-702.0
92.8,669.0,-229.0,-658.0
93.343,693.0,-172.0,-566.0
93.467,554.0,-154.0,-672.0
93.591,381.0,-138.0,-789.0
93.719,208.0,-90.0,-918.0
93.843,101.0,-62.0,-965.0
94.528,88.0,-62.0,-998.0
94.651,225.0,-90.0,-970.0
94.776,405.0,-170.0,-905.0
94.899,554.0,-209.0,-785.0
95.023,657.0,-216.0,-684.0
95.149,709.0,-165.0,-616.0
95.292,720.0,-166.0,-605.0
95.416,684.0,-190.0,-625.0
95.539,570.0,-188.0,-713.0
95.663,392.0,-164.0,-816.0
95.788,233.0,-134.0,-926.0
96.051,81.0,-108.0,-980.0
96.736,70.0,-78.0,-961.0
96.859,189.0,-97.0,-953.0
96.983,324.0,-109.0,-916.0
97.107,470.0,-180.0,-841.0
97.231,597.0,-218.0,-684.0
97.355,714.0,-257.0,-569.0
97.48,710.0,-226.0,-566.0
97.603,600.0,-236.0,-662.0
97.727,440.0,-234.0,-768.0
97.851,296.0,-234.0,-850.0
97.975,204.0,-206.0,-896.0
98.099,132.0,-178.0,-929.0
98.223,62.0,-150.0,-960.0
98.347,-9.0,-113.0,-980.0
98.472,-70.0,-92.0,-998.0
98.736,-10.0,-94.0,-977.0
98.859,54.0,-81.0,-930.0
98.983,70.0,-44.0,-946.0
99.107,49.0,26.0,-964.0
99.236,156.0,9.0,-1004.0
99.359,328.0,16.0,-914.0
99.483,496.0,24.0,-848.0
99.607,606.0,60.0,-736.0
99.731,712.0,46.0,-648.0
99.855,796.0,21.0,-532.0
100.119,722.0,45.0,-562.0
100.243,561.0,44.0,-725.0
100.367,326.0,30.0,-878.0
100.492,162.0,-22.0,-966.0
100.615,28.0,-49.0,-990.0
101.16,-22.0,-108.0,-997.0
101.423,77.0,-140.0,-984.0
101.547,156.0,-145.0,-956.0
101.671,245.0,-160.0,-856.0
101.795,382.0,-140.0,-786.0
101.919,502.0,-124.0,-700.0
102.043,658.0,-94.0,-678.0
102.167,741.0,-77.0,-604.0
102.291,764.0,-64.0,-612.0
102.415,664.0,-56.0,-690.0
102.539,492.0,-42.0,-814.0
102.663,314.0,-29.0,-917.0
102.787,188.0,-38.0,-968.0
102.911,44.0,-8.0,-992.0
103.175,-78.0,22.0,-992.0
103.303,-64.0,13.0,-996.0
103.847,16.0,-9.0,-1008.0
103.972,106.0,-10.0,-1014.0
104.095,234.0,-32.0,-974.0
104.219,340.0,-65.0,-924.0
104.344,478.0,-100.0,-828.0
104.467,637.0,-113.0,-676.0
104.591,761.0,-134.0,-484.0
104.715,841.0,-173.0,-402.0
104.84,738.0,-178.0,-500.0
104.963,552.0,-188.0,-725.0
105.087,325.0,-142.0,-888.0
105.211,174.0,-117.0,-969.0
105.336,54.0,-70.0,-961.0
105.459,-21.0,-70.0,-968.0
106.143,2.0,-85.0,-996.0
106.267,180.0,-97.0,-954.0
106.391,396.0,-118.0,-881.0
106.515,605.0,-137.0,-750.0
106.639,705.0,-129.0,-621.0
106.763,785.0,-124.0,-521.0
106.887,801.0,-108.0,-490.0
107.011,757.0,-112.0,-578.0
107.135,590.0,-102.0,-729.0
107.259,401.0,-104.0,-861.0
107.387,233.0,-90.0,-942.0
107.511,141.0,-81.0,-964.0
107.635,72.0,-74.0,-977.0
108.179,124.0,-117.0,-970.0
108.303,272.0,-114.0,-940.0
108.427,464.0,-112.0,-870.0
108.551,593.0,-78.0,-781.0
108.675,698.0,-65.0,-661.0
108.799,772.0,-56.0,-574.0
109.064,777.0,-33.0,-568.0
109.187,605.0,-48.0,-702.0
109.312,368.0,-53.0,-849.0
109.435,142.0,-77.0,-956.0
109.559,44.0,-86.0,-972.0
110.227,73.0,-93.0,-942.0
110.351,250.0,-81.0,-921.0
110.475,458.0,-58.0,-829.0
110.599,629.0,-33.0,-768.0
110.987,668.0,-30.0,-764.0
111.111,508.0,-60.0,-852.0
111.235,305.0,-66.0,-966.0
111.499,125.0,-44.0,-977.0
111.625,86.0,-36.0,-972.0
111.751,4.0,-25.0,-994.0
112.015,66.0,-17.0,-984.0
112.139,218.0,-45.0,-948.0
112.263,398.0,-100.0,-877.0
112.387,538.0,-149.0,-776.0
112.511,633.0,-181.0,-672.0
112.775,661.0,-173.0,-669.0
112.9,534.0,-140.0,-777.0
113.023,306.0,-98.0,-904.0
113.147,96.0,-73.0,-970.0
113.831,18.0,-18.0,-966.0
113.955,138.0,-42.0,-973.0
114.079,280.0,-48.0,-921.0
114.203,414.0,-73.0,-849.0
114.327,572.0,-88.0,-720.0
114.451,700.0,-101.0,-608.0
114.575,745.0,-117.0,-618.0
114.7,585.0,-110.0,-706.0
114.823,365.0,-113.0,-856.0
114.947,130.0,-92.0,-926.0
115.351,28.0,-132.0,-984.0
115.475,80.0,-153.0,-966.0
115.599,198.0,-161.0,-913.0
115.723,338.0,-149.0,-902.0
115.851,522.0,-169.0,-804.0
115.975,644.0,-204.0,-749.0
116.1,730.0,-226.0,-600.0
116.503,765.0,-209.0,-578.0
116.627,638.0,-205.0,-686.0
116.751,453.0,-180.0,-809.0
116.875,236.0,-152.0,-913.0
117.0,108.0,-116.0,-952.0
117.123,30.0,-121.0,-978.0
117.527,44.0,-90.0,-981.0
117.652,172.0,-133.0,-976.0
117.777,320.0,-130.0,-914.0
117.899,484.0,-157.0,-833.0
118.023,628.0,-121.0,-734.0
118.147,736.0,-152.0,-646.0
118.271,769.0,-145.0,-581.0
118.535,745.0,-150.0,-556.0
118.659,661.0,-157.0,-642.0
118.783,490.0,-117.0,-752.0
118.907,294.0,-93.0,-873.0
119.031,142.0,-49.0,-932.0
119.575,100.0,-54.0,-964.0
119.699,234.0,-54.0,-910.0
119.823,397.0,-61.0,-864.0
119.95,557.0,-61.0,-784.0
120.091,665.0,-101.0,-686.0
120.635,733.0,-130.0,-578.0
120.759,610.0,-132.0,-676.0
120.883,440.0,-102.0,-810.0
121.147,289.0,-113.0,-924.0
121.831,350.0,-186.0,-776.0
121.955,358.0,-185.0,-778.0
122.079,373.0,-168.0,-766.0
122.483,461.0,-110.0,-848.0
122.607,594.0,-112.0,-689.0
122.732,742.0,-128.0,-510.0
122.855,850.0,-181.0,-341.0
123.4,841.0,-198.0,-408.0
123.523,768.0,-188.0,-522.0
123.647,682.0,-185.0,-648.0
123.911,530.0,-182.0,-789.0
124.035,420.0,-180.0,-874.0
124.159,317.0,-160.0,-930.0
124.283,234.0,-137.0,-957.0
124.671,158.0,-104.0,-964.0
125.076,121.0,-105.0,-966.0
125.339,209.0,-110.0,-946.0
125.463,260.0,-120.0,-925.0
125.587,326.0,-130.0,-890.0
125.711,380.0,-138.0,-853.0
125.835,444.0,-122.0,-800.0
125.959,498.0,-108.0,-788.0
126.083,581.0,-112.0,-728.0
126.207,662.0,-114.0,-646.0
126.331,773.0,-136.0,-496.0
126.595,828.0,-97.0,-484.0
126.719,748.0,-68.0,-576.0
126.843,657.0,-81.0,-685.0
126.967,501.0,-105.0,-817.0
127.091,376.0,-112.0,-904.0
128.055,281.0,-116.0,-941.0
128.179,326.0,-133.0,-898.0
128.304,384.0,-149.0,-857.0
128.427,474.0,-178.0,-782.0
128.552,566.0,-201.0,-753.0
128.675,660.0,-240.0,-696.0
128.804,702.0,-222.0,-644.0
128.927,694.0,-193.0,-616.0
129.052,632.0,-166.0,-673.0
129.175,529.0,-156.0,-756.0
129.299,413.0,-150.0,-848.0
129.423,312.0,-118.0,-893.0
130.247,160.0,-56.0,-970.0
130.372,36.0,-25.0,-1008.0
130.635,14.0,-10.0,-1008.0
130.771,236.0,-64.0,-925.0
130.883,489.0,-142.0,-817.0
131.008,620.0,-173.0,-709.0
131.131,640.0,-184.0,-682.0
131.255,565.0,-146.0,-745.0
131.379,425.0,-138.0,-820.0
131.503,269.0,-86.0,-884.0
131.627,116.0,-62.0,-936.0
131.751,-20.0,-16.0,-1002.0
132.015,-104.0,12.0,-1010.0
132.139,-1.0,-2.0,-978.0
132.543,173.0,-37.0,-942.0
132.667,302.0,-74.0,-905.0
132.791,488.0,-164.0,-818.0
132.918,626.0,-217.0,-701.0
133.043,706.0,-273.0,-601.0
133.167,690.0,-265.0,-586.0
133.291,644.0,-246.0,-658.0
133.415,505.0,-206.0,-768.0
133.539,306.0,-152.0,-870.0
133.663,82.0,-97.0,-954.0
133.931,-120.0,-13.0,-996.0
134.195,-124.0,34.0,-1022.0
134.319,69.0,-14.0,-965.0
134.444,333.0,-88.0,-873.0
134.568,601.0,-154.0,-690.0
134.691,770.0,-197.0,-540.0
134.815,849.0,-216.0,-394.0
134.939,885.0,-244.0,-392.0
135.063,761.0,-256.0,-544.0
135.187,468.0,-216.0,-742.0
135.311,120.0,-185.0,-882.0
135.435,-192.0,-52.0,-918.0
135.839,-320.0,36.0,-1004.0
135.964,-154.0,26.0,-977.0
136.087,150.0,-49.0,-912.0
136.211,425.0,-149.0,-732.0
136.335,642.0,-204.0,-626.0
136.459,766.0,-188.0,-526.0
136.583,800.0,-209.0,-525.0
136.707,694.0,-208.0,-614.0
136.832,410.0,-165.0,-765.0
136.959,101.0,-106.0,-892.0
137.083,-198.0,-45.0,-949.0
137.207,-365.0,-65.0,-921.0
137.471,-336.0,-64.0,-936.0
137.595,-164.0,-100.0,-986.0
137.719,90.0,-66.0,-958.0
137.843,408.0,-68.0,-921.0
137.967,614.0,-2.0,-829.0
138.091,733.0,-16.0,-765.0
138.215,722.0,-14.0,-762.0
138.339,592.0,-53.0,-797.0
138.463,349.0,-89.0,-924.0
138.587,-28.0,-156.0,-948.0
138.711,-340.0,-176.0,-902.0
138.835,-497.0,-177.0,-846.0
138.959,-506.0,-146.0,-833.0
139.083,-388.0,-101.0,-925.0
139.207,-382.0,-101.0,-906.0
139.331,-229.0,-81.0,-928.0
139.455,18.0,-64.0,-876.0
139.579,350.0,-8.0,-806.0
139.703,605.0,-22.0,-654.0
139.827,734.0,-29.0,-500.0
139.951,829.0,-34.0,-425.0
140.075,781.0,1.0,-469.0
140.199,544.0,22.0,-600.0
140.327,272.0,-2.0,-754.0
140.451,14.0,-34.0,-854.0
140.575,-81.0,-69.0,-910.0
140.704,-148.0,-98.0,-970.0
140.827,-190.0,-116.0,-962.0
140.951,-214.0,-129.0,-866.0
141.075,-94.0,-125.0,-829.0
141.2,140.0,-109.0,-822.0
141.328,446.0,-58.0,-905.0
141.451,650.0,-6.0,-764.0
141.575,794.0,42.0,-637.0
141.699,849.0,38.0,-561.0
141.823,701.0,16.0,-661.0
141.947,448.0,-80.0,-838.0
142.071,129.0,-138.0,-946.0
142.195,-56.0,-126.0,-1016.0
142.319,-153.0,-112.0,-1212.0
142.443,-154.0,-70.0,-1220.0
142.567,-152.0,-56.0,-1216.0
143.251,-64.0,-17.0,-985.0
143.376,134.0,53.0,-980.0
143.5,390.0,118.0,-858.0
143.625,621.0,157.0,-796.0
143.747,738.0,105.0,-650.0
143.871,805.0,76.0,-622.0
143.995,856.0,97.0,-569.0
144.119,821.0,94.0,-637.0
144.243,597.0,65.0,-762.0
144.368,289.0,-21.0,-897.0
144.492,-50.0,-69.0,-952.0
144.618,-226.0,-98.0,-946.0
144.743,-280.0,-89.0,-954.0
144.868,-248.0,-84.0,-977.0
144.992,-133.0,-120.0,-1048.0
145.115,-12.0,-138.0,-984.0
145.239,250.0,-17.0,-925.0
145.363,532.0,101.0,-742.0
145.487,753.0,170.0,-634.0
145.611,846.0,96.0,-520.0
145.875,840.0,90.0,-489.0
146.0,753.0,81.0,-638.0
146.125,521.0,12.0,-828.0
146.247,165.0,-88.0,-948.0
146.371,-109.0,-146.0,-960.0
146.495,-210.0,-142.0,-956.0
146.62,-181.0,-120.0,-941.0
146.742,-141.0,-114.0,-910.0
146.867,40.0,-96.0,-821.0
146.992,372.0,-17.0,-772.0
147.115,677.0,33.0,-662.0
147.239,844.0,53.0,-554.0
147.363,877.0,26.0,-446.0
147.487,900.0,33.0,-437.0
147.611,824.0,-4.0,-568.0
147.736,637.0,-52.0,-725.0
147.86,305.0,-100.0,-853.0
147.983,1.0,-116.0,-894.0
148.107,-172.0,-106.0,-937.0
148.775,-86.0,-81.0,-988.0
150.299,-42.0,-61.0,-973.0
150.422,18.0,-58.0,-965.0
150.547,224.0,-26.0,-929.0
150.671,452.0,16.0,-861.0
150.795,616.0,49.0,-756.0
150.919,725.0,72.0,-621.0
151.043,812.0,72.0,-501.0
151.167,889.0,74.0,-389.0
151.291,817.0,56.0,-438.0
151.417,650.0,10.0,-613.0
151.539,410.0,-64.0,-812.0
151.663,174.0,-109.0,-924.0
151.787,25.0,-130.0,-917.0
151.911,25.0,-112.0,-953.0
152.035,113.0,-90.0,-904.0
152.159,272.0,-73.0,-912.0
152.286,421.0,-62.0,-846.0
152.407,600.0,-60.0,-830.0
152.531,745.0,-46.0,-726.0
152.655,833.0,-25.0,-577.0
152.778,893.0,8.0,-448.0
152.906,873.0,17.0,-452.0
153.03,813.0,4.0,-558.0
153.155,657.0,-40.0,-685.0
153.279,494.0,-74.0,-798.0
153.403,302.0,-112.0,-892.0
153.527,72.0,-129.0,-941.0
153.652,-57.0,-116.0,-946.0
153.779,-146.0,-120.0,-941.0
154.182,-117.0,-160.0,-933.0
154.306,1.0,-94.0,-906.0
154.431,277.0,-45.0,-886.0
154.555,541.0,22.0,-781.0
154.679,762.0,-4.0,-620.0
154.802,833.0,0.0,-402.0
155.066,930.0,8.0,-384.0
155.191,816.0,-6.0,-558.0
155.315,622.0,-25.0,-788.0
155.44,180.0,-82.0,-854.0
155.563,-64.0,-78.0,-906.0
155.687,-228.0,-117.0,-901.0
155.811,-104.0,-89.0,-944.0
155.935,0.0,-153.0,-873.0
156.059,264.0,-134.0,-870.0
156.183,553.0,-112.0,-778.0
156.307,809.0,-58.0,-690.0
156.431,898.0,-22.0,-472.0
156.555,981.0,-5.0,-460.0
156.68,777.0,17.0,-534.0
156.807,474.0,-26.0,-746.0
156.93,60.0,-96.0,-842.0
157.055,-33.0,-94.0,-944.0
157.179,-77.0,-45.0,-982.0
157.303,-64.0,6.0,-1012.0
0.0,-1.0,-26.0,-349.0
0.124,-6.0,-57.0,-689.0
3.888,0.0,-104.0,-1002.0
4.012,62.0,-102.0,-1000.0
4.135,165.0,-90.0,-990.0
4.259,229.0,-16.0,-950.0
4.383,298.0,8.0,-926.0
4.507,340.0,26.0,-902.0
5.051,430.0,-22.0,-918.0
5.177,364.0,-32.0,-954.0
5.319,204.0,-49.0,-1030.0
5.444,90.0,-68.0,-1052.0
5.567,-6.0,-34.0,-333.0
5.695,-17.0,-68.0,-664.0
6.379,4.0,-85.0,-1032.0
6.503,53.0,-78.0,-1061.0
6.627,142.0,-85.0,-1018.0
6.752,257.0,-109.0,-980.0
6.875,401.0,-104.0,-882.0
7.0,553.0,-60.0,-777.0
7.123,689.0,1.0,-642.0
7.247,785.0,36.0,-530.0
7.511,829.0,58.0,-510.0
7.636,773.0,54.0,-585.0
7.759,658.0,65.0,-710.0
7.883,470.0,54.0,-840.0
8.007,240.0,10.0,-938.0
8.132,26.0,-86.0,-994.0
8.395,-101.0,-170.0,-1066.0
8.519,-85.0,-169.0,-1050.0
9.203,73.0,-110.0,-992.0
9.327,249.0,-73.0,-958.0
9.455,478.0,-42.0,-885.0
9.579,649.0,-29.0,-746.0
9.703,796.0,-5.0,-576.0
9.827,873.0,5.0,-434.0
9.952,920.0,32.0,-408.0
10.076,824.0,14.0,-510.0
10.199,585.0,-2.0,-678.0
10.323,262.0,-66.0,-842.0
10.447,-16.0,-102.0,-1024.0
10.571,-144.0,-108.0,-1082.0
10.696,-168.0,-86.0,-1096.0
10.96,-121.0,-54.0,-1016.0
11.083,-97.0,-8.0,-1020.0
11.208,-78.0,22.0,-1040.0
11.331,0.0,16.0,-1049.0
11.455,121.0,-30.0,-1034.0
11.58,301.0,-64.0,-956.0
11.703,460.0,-68.0,-860.0
11.827,601.0,-48.0,-760.0
11.951,712.0,-32.0,-680.0
12.076,781.0,-36.0,-617.0
12.34,724.0,-61.0,-682.0
12.463,570.0,-78.0,-810.0
12.587,316.0,-96.0,-937.0
12.711,-6.0,-89.0,-974.0
12.835,-262.0,-78.0,-970.0
12.959,-372.0,-84.0,-958.0
13.083,-346.0,-90.0,-977.0
13.21,-264.0,-109.0,-1010.0
13.335,-209.0,-104.0,-1013.0
13.599,-97.0,-106.0,-1002.0
13.723,68.0,-101.0,-990.0
13.847,302.0,-82.0,-930.0
13.971,545.0,-46.0,-804.0
14.095,728.0,-29.0,-637.0
14.219,858.0,-17.0,-514.0
14.343,886.0,-25.0,-484.0
14.467,782.0,-38.0,-573.0
14.591,586.0,-41.0,-741.0
14.715,294.0,-37.0,-900.0
14.839,49.0,-32.0,-986.0
15.103,-144.0,-58.0,-1022.0
15.647,12.0,-28.0,-1022.0
15.771,168.0,-36.0,-990.0
15.895,361.0,-46.0,-913.0
16.019,540.0,-37.0,-841.0
16.284,638.0,-20.0,-806.0
16.407,518.0,-56.0,-841.0
16.531,345.0,-58.0,-942.0
16.655,152.0,-85.0,-981.0
16.78,-33.0,-89.0,-1020.0
16.903,-117.0,-98.0,-1012.0
17.027,-144.0,-58.0,-1026.0
17.415,-56.0,0.0,-1026.0
17.539,-8.0,-9.0,-1006.0
17.663,152.0,-17.0,-984.0
17.787,342.0,-37.0,-913.0
17.911,560.0,-56.0,-792.0
18.035,740.0,-81.0,-634.0
18.159,813.0,-124.0,-534.0
18.284,784.0,-148.0,-602.0
18.407,586.0,-176.0,-745.0
18.531,354.0,-126.0,-905.0
18.655,137.0,-89.0,-973.0
18.779,-8.0,-49.0,-1016.0
19.463,-29.0,22.0,-1014.0
19.587,129.0,50.0,-1000.0
19.711,361.0,81.0,-912.0
19.835,606.0,104.0,-778.0
19.959,766.0,90.0,-608.0
20.083,846.0,57.0,-522.0
20.207,818.0,4.0,-553.0
20.331,660.0,-9.0,-714.0
20.455,390.0,-8.0,-870.0
20.579,53.0,5.0,-974.0
21.123,-134.0,-32.0,-1013.0
21.53,-14.0,-50.0,-993.0
21.655,166.0,-41.0,-944.0
21.779,414.0,-2.0,-856.0
21.903,652.0,9.0,-733.0
22.027,776.0,-1.0,-617.0
22.151,818.0,-45.0,-574.0
22.275,744.0,-52.0,-634.0
22.399,582.0,-64.0,-780.0
22.523,338.0,-44.0,-912.0
22.647,118.0,-37.0,-992.0
22.771,-46.0,-14.0,-1016.0
23.455,24.0,-22.0,-985.0
23.579,249.0,-40.0,-932.0
23.703,528.0,-48.0,-842.0
23.827,702.0,-33.0,-714.0
23.951,774.0,-40.0,-618.0
24.075,788.0,-58.0,-601.0
24.199,705.0,-100.0,-685.0
24.323,560.0,-114.0,-804.0
24.447,330.0,-114.0,-901.0
24.571,113.0,-86.0,-968.0
24.695,-80.0,-61.0,-990.0
25.523,-80.0,-68.0,-1006.0
25.648,76.0,-69.0,-972.0
25.775,318.0,-58.0,-904.0
25.899,562.0,-18.0,-784.0
26.024,760.0,9.0,-606.0
26.287,849.0,24.0,-524.0
26.411,742.0,21.0,-686.0
26.535,536.0,4.0,-817.0
26.659,290.0,16.0,-924.0
26.784,68.0,34.0,-972.0
26.907,-58.0,56.0,-1006.0
27.591,0.0,24.0,-1013.0
27.715,198.0,29.0,-953.0
27.839,465.0,34.0,-829.0
27.963,692.0,41.0,-681.0
28.087,814.0,26.0,-576.0
28.211,825.0,5.0,-588.0
28.335,717.0,-17.0,-693.0
28.459,544.0,-29.0,-834.0
28.583,308.0,-34.0,-921.0
28.707,96.0,-17.0,-969.0
28.832,-84.0,2.0,-986.0
29.375,-93.0,22.0,-1022.0
29.499,-1.0,9.0,-1001.0
29.624,188.0,10.0,-925.0
29.747,445.0,22.0,-830.0
29.871,702.0,41.0,-688.0
29.999,833.0,44.0,-584.0
30.123,842.0,12.0,-573.0
30.247,697.0,-14.0,-710.0
30.371,450.0,-46.0,-868.0
30.495,136.0,-68.0,-982.0
30.619,-78.0,-68.0,-1010.0
30.883,-128.0,-53.0,-1029.0
31.287,-26.0,12.0,-1004.0
31.411,124.0,54.0,-982.0
31.535,366.0,117.0,-906.0
31.659,616.0,168.0,-797.0
31.783,768.0,186.0,-678.0
31.907,768.0,161.0,-676.0
32.031,621.0,110.0,-781.0
32.155,369.0,62.0,-905.0
32.283,109.0,20.0,-984.0
32.407,-105.0,4.0,-989.0
32.671,-210.0,0.0,-1012.0
33.075,-90.0,42.0,-994.0
33.199,40.0,61.0,-949.0
33.33,296.0,121.0,-865.0
33.447,558.0,157.0,-745.0
33.571,753.0,184.0,-626.0
33.835,777.0,116.0,-597.0
33.959,642.0,70.0,-714.0
34.087,425.0,12.0,-852.0
34.211,176.0,-12.0,-960.0
34.335,-8.0,-21.0,-1002.0
35.019,-45.0,0.0,-1001.0
35.143,108.0,29.0,-974.0
35.267,344.0,82.0,-885.0
35.391,600.0,105.0,-773.0
35.515,786.0,125.0,-624.0
35.639,878.0,98.0,-510.0
35.763,885.0,108.0,-474.0
35.887,824.0,90.0,-573.0
36.011,622.0,86.0,-758.0
36.135,344.0,49.0,-920.0
36.259,32.0,34.0,-993.0
36.383,-132.0,20.0,-1009.0
36.647,-174.0,17.0,-1021.0
37.035,33.0,42.0,-1008.0
37.159,281.0,65.0,-933.0
37.283,581.0,88.0,-780.0
37.407,762.0,94.0,-610.0
37.531,868.0,78.0,-488.0
37.655,869.0,54.0,-490.0
37.779,773.0,25.0,-589.0
37.903,564.0,2.0,-756.0
38.027,322.0,-18.0,-890.0
38.154,134.0,-16.0,-968.0
38.279,-1.0,-9.0,-998.0
38.823,-57.0,54.0,-1020.0
38.947,16.0,105.0,-982.0
39.071,176.0,193.0,-956.0
39.195,388.0,262.0,-866.0
39.319,598.0,293.0,-753.0
39.443,761.0,289.0,-586.0
39.567,838.0,254.0,-498.0
39.691,828.0,212.0,-534.0
39.815,706.0,165.0,-661.0
39.939,532.0,109.0,-813.0
40.063,298.0,46.0,-921.0
40.187,105.0,-9.0,-985.0
40.871,61.0,25.0,-974.0
40.995,300.0,52.0,-882.0
41.119,589.0,76.0,-706.0
41.244,817.0,100.0,-509.0
41.368,937.0,93.0,-333.0
41.491,948.0,80.0,-313.0
41.615,884.0,69.0,-430.0
41.739,730.0,61.0,-621.0
41.863,549.0,42.0,-802.0
41.987,280.0,29.0,-922.0
42.111,82.0,16.0,-989.0
42.237,-70.0,16.0,-1012.0
42.643,-66.0,62.0,-981.0
42.767,109.0,130.0,-976.0
42.891,369.0,180.0,-894.0
43.015,732.0,189.0,-338.0
43.139,918.0,170.0,-77.0
43.263,1022.0,156.0,129.0
43.387,978.0,146.0,-226.0
43.511,890.0,134.0,-354.0
43.635,682.0,105.0,-602.0
43.759,417.0,73.0,-813.0
43.883,168.0,29.0,-961.0
44.007,13.0,8.0,-1016.0
44.131,-93.0,-9.0,-1046.0
44.675,-126.0,-20.0,-1008.0
44.799,-2.0,-34.0,-992.0
44.923,216.0,-22.0,-926.0
45.047,493.0,2.0,-789.0
45.171,736.0,60.0,-572.0
45.295,905.0,101.0,-329.0
45.559,948.0,88.0,-282.0
45.683,784.0,42.0,-534.0
45.807,506.0,-2.0,-812.0
45.931,218.0,-30.0,-958.0
46.055,24.0,-38.0,-1014.0
46.583,-46.0,30.0,-1024.0
46.707,102.0,113.0,-986.0
46.831,360.0,206.0,-874.0
46.955,665.0,254.0,-665.0
47.079,858.0,264.0,-433.0
47.203,933.0,234.0,-361.0
47.327,841.0,177.0,-504.0
47.451,625.0,122.0,-733.0
47.575,329.0,49.0,-914.0
47.703,104.0,33.0,-978.0
47.827,-20.0,6.0,-1013.0
48.371,98.0,32.0,-1028.0
48.495,313.0,53.0,-920.0
48.619,620.0,89.0,-754.0
48.743,826.0,124.0,-457.0
48.867,964.0,145.0,-261.0
48.991,977.0,122.0,-193.0
49.115,916.0,90.0,-342.0
49.239,765.0,61.0,-588.0
49.363,512.0,50.0,-818.0
49.487,240.0,30.0,-964.0
49.611,13.0,12.0,-1018.0
50.295,-8.0,-1.0,-974.0
50.419,222.0,2.0,-906.0
50.546,516.0,32.0,-796.0
50.671,774.0,54.0,-594.0
50.795,917.0,73.0,-384.0
51.059,954.0,40.0,-309.0
51.183,796.0,28.0,-516.0
51.307,544.0,1.0,-756.0
51.431,233.0,-13.0,-929.0
51.555,9.0,-52.0,-1005.0
52.099,-89.0,33.0,-1002.0
52.223,17.0,58.0,-985.0
52.347,201.0,85.0,-925.0
52.471,421.0,94.0,-953.0
52.595,633.0,124.0,-785.0
52.719,777.0,138.0,-673.0
52.843,806.0,124.0,-554.0
52.967,718.0,112.0,-650.0
53.091,557.0,94.0,-774.0
53.215,344.0,54.0,-904.0
53.339,140.0,17.0,-978.0
53.463,-14.0,-17.0,-1024.0
54.007,-37.0,-16.0,-1005.0
54.131,125.0,-12.0,-964.0
54.255,376.0,34.0,-865.0
54.379,640.0,92.0,-688.0
54.503,845.0,133.0,-468.0
54.63,958.0,110.0,-280.0
54.755,973.0,81.0,-268.0
54.879,870.0,30.0,-412.0
55.003,696.0,4.0,-642.0
55.127,444.0,-53.0,-838.0
55.251,188.0,-78.0,-954.0
55.375,-17.0,-94.0,-1000.0
55.903,-117.0,0.0,-997.0
56.027,22.0,32.0,-937.0
56.151,292.0,86.0,-861.0
56.275,601.0,133.0,-698.0
56.399,838.0,174.0,-498.0
56.523,937.0,185.0,-350.0
56.647,912.0,150.0,-396.0
56.771,736.0,104.0,-597.0
56.895,453.0,64.0,-794.0
57.019,172.0,37.0,-930.0
57.143,-38.0,25.0,-982.0
57.687,-92.0,57.0,-1014.0
57.811,53.0,100.0,-980.0
57.935,306.0,169.0,-886.0
58.059,608.0,237.0,-696.0
58.183,824.0,281.0,-470.0
58.307,909.0,258.0,-336.0
58.431,873.0,193.0,-384.0
58.555,732.0,137.0,-557.0
58.682,530.0,73.0,-770.0
58.807,286.0,32.0,-918.0
58.931,58.0,-8.0,-990.0
59.055,-92.0,-12.0,-1005.0
59.599,-52.0,-9.0,-1005.0
59.723,150.0,21.0,-984.0
59.846,434.0,62.0,-868.0
59.971,708.0,104.0,-666.0
60.095,866.0,106.0,-394.0
60.219,956.0,81.0,-212.0
60.343,982.0,49.0,-181.0
60.467,932.0,29.0,-333.0
60.591,786.0,10.0,-564.0
60.714,550.0,2.0,-800.0
60.838,301.0,-14.0,-930.0
60.963,69.0,-22.0,-992.0
61.087,-76.0,-16.0,-994.0
61.631,-97.0,62.0,-1028.0
61.755,52.0,97.0,-1021.0
61.879,324.0,102.0,-897.0
62.003,624.0,74.0,-710.0
62.127,848.0,80.0,-422.0
62.25,952.0,100.0,-218.0
62.375,981.0,121.0,-216.0
62.499,846.0,98.0,-434.0
62.623,592.0,81.0,-730.0
62.75,265.0,54.0,-934.0
62.875,0.0,48.0,-1000.0
62.999,-145.0,30.0,-1005.0
63.683,-62.0,-22.0,-1000.0
63.807,114.0,-9.0,-960.0
63.931,372.0,16.0,-869.0
64.055,634.0,44.0,-706.0
64.179,829.0,73.0,-488.0
64.303,948.0,60.0,-288.0
64.427,978.0,60.0,-226.0
64.551,922.0,62.0,-316.0
64.675,758.0,74.0,-549.0
64.836,526.0,77.0,-768.0
64.923,265.0,61.0,-937.0
65.047,61.0,58.0,-1000.0
65.171,-54.0,50.0,-1020.0
65.715,-2.0,38.0,-985.0
65.839,177.0,45.0,-960.0
65.963,429.0,54.0,-864.0
66.086,669.0,65.0,-700.0
66.211,842.0,76.0,-437.0
66.334,957.0,69.0,-214.0
66.459,982.0,74.0,-124.0
66.583,942.0,60.0,-230.0
66.707,848.0,64.0,-478.0
66.833,606.0,49.0,-721.0
66.959,334.0,42.0,-904.0
67.082,86.0,25.0,-982.0
67.207,-18.0,12.0,-1021.0
67.61,-121.0,-29.0,-1037.0
67.875,-86.0,-53.0,-984.0
67.999,118.0,-33.0,-949.0
68.124,421.0,-1.0,-818.0
68.247,724.0,37.0,-640.0
68.371,876.0,62.0,-388.0
68.634,888.0,37.0,-385.0
68.759,732.0,56.0,-610.0
68.883,430.0,34.0,-841.0
69.006,121.0,50.0,-952.0
69.131,-102.0,14.0,-1005.0
69.379,-148.0,60.0,-1042.0
69.503,-130.0,42.0,-1078.0
69.626,-117.0,-9.0,-1081.0
69.751,-69.0,-78.0,-1026.0
69.875,104.0,-49.0,-989.0
69.999,373.0,28.0,-876.0
70.123,658.0,110.0,-702.0
70.246,869.0,124.0,-484.0
70.371,912.0,98.0,-454.0
70.494,808.0,53.0,-572.0
70.619,550.0,16.0,-785.0
70.742,297.0,-28.0,-953.0
70.871,100.0,-16.0,-1014.0
70.995,10.0,5.0,-1012.0
71.119,-44.0,14.0,-984.0
71.242,-77.0,-26.0,-993.0
71.506,-50.0,-5.0,-996.0
71.63,45.0,33.0,-986.0
71.755,197.0,86.0,-940.0
71.879,417.0,106.0,-846.0
72.003,660.0,144.0,-678.0
72.127,844.0,117.0,-526.0
72.25,884.0,82.0,-461.0
72.374,808.0,54.0,-554.0
72.499,641.0,34.0,-733.0
72.623,433.0,14.0,-898.0
72.746,220.0,-5.0,-981.0
72.87,41.0,-9.0,-1012.0
72.994,-74.0,1.0,-1006.0
73.538,-92.0,45.0,-1026.0
73.943,74.0,78.0,-1018.0
74.067,346.0,72.0,-908.0
74.19,641.0,80.0,-694.0
74.314,844.0,101.0,-473.0
74.438,906.0,118.0,-388.0
74.562,869.0,105.0,-477.0
74.686,676.0,56.0,-678.0
74.81,362.0,-12.0,-872.0
74.938,36.0,-60.0,-958.0
75.062,-216.0,-85.0,-969.0
75.746,-161.0,-62.0,-988.0
75.87,29.0,-40.0,-950.0
75.995,356.0,-9.0,-844.0
76.119,678.0,33.0,-658.0
76.243,897.0,58.0,-468.0
76.366,917.0,81.0,-410.0
76.491,817.0,80.0,-556.0
76.614,578.0,58.0,-766.0
76.738,312.0,29.0,-929.0
76.862,85.0,16.0,-988.0
76.986,-38.0,34.0,-1010.0
77.53,-41.0,48.0,-1013.0
77.654,84.0,84.0,-968.0
77.778,317.0,90.0,-865.0
77.902,617.0,92.0,-668.0
78.026,848.0,69.0,-469.0
78.29,917.0,66.0,-382.0
78.414,750.0,45.0,-568.0
78.538,513.0,9.0,-794.0
78.662,237.0,2.0,-952.0
78.786,32.0,1.0,-1006.0
79.434,-30.0,57.0,-1010.0
79.558,92.0,84.0,-985.0
79.682,300.0,105.0,-905.0
79.806,542.0,100.0,-770.0
79.93,730.0,96.0,-598.0
80.054,849.0,104.0,-460.0
80.178,900.0,125.0,-430.0
80.302,816.0,106.0,-518.0
80.426,628.0,74.0,-706.0
80.55,361.0,5.0,-896.0
80.674,136.0,-22.0,-997.0
80.799,-5.0,-42.0,-1026.0
81.483,-24.0,38.0,-1008.0
81.606,112.0,69.0,-969.0
81.73,330.0,97.0,-882.0
81.854,578.0,128.0,-746.0
81.978,765.0,152.0,-590.0
82.102,865.0,169.0,-469.0
82.227,888.0,173.0,-450.0
82.35,800.0,180.0,-560.0
82.474,604.0,132.0,-744.0
82.598,336.0,88.0,-908.0
82.722,108.0,34.0,-976.0
82.846,-21.0,33.0,-1005.0
83.373,-17.0,32.0,-990.0
83.498,89.0,21.0,-1112.0
83.623,298.0,42.0,-1021.0
83.746,573.0,68.0,-888.0
83.87,806.0,101.0,-537.0
83.994,926.0,84.0,-397.0
84.118,932.0,69.0,-354.0
84.242,868.0,64.0,-466.0
84.366,688.0,52.0,-653.0
84.491,437.0,26.0,-829.0
84.614,184.0,-10.0,-934.0
84.738,25.0,-29.0,-990.0
85.842,-44.0,-29.0,-1009.0
85.966,73.0,-25.0,-996.0
86.09,289.0,-1.0,-953.0
86.214,526.0,25.0,-828.0
86.338,740.0,58.0,-648.0
86.462,850.0,56.0,-504.0
86.586,917.0,49.0,-361.0
86.71,858.0,37.0,-422.0
86.834,744.0,40.0,-544.0
86.958,545.0,17.0,-806.0
87.082,316.0,-5.0,-917.0
87.206,114.0,-25.0,-974.0
87.331,8.0,-18.0,-1009.0
87.998,56.0,-2.0,-997.0
88.122,248.0,-28.0,-908.0
88.246,528.0,-34.0,-773.0
88.37,769.0,-26.0,-568.0
88.494,901.0,2.0,-450.0
88.618,914.0,-24.0,-446.0
88.742,772.0,-44.0,-594.0
88.866,534.0,-84.0,-793.0
88.99,252.0,-84.0,-938.0
89.114,48.0,-69.0,-1002.0
89.238,-62.0,-54.0,-1008.0
90.062,56.0,-16.0,-1010.0
90.186,265.0,-4.0,-953.0
90.31,542.0,21.0,-828.0
90.434,762.0,41.0,-620.0
90.558,902.0,76.0,-437.0
90.822,900.0,102.0,-418.0
90.946,760.0,69.0,-616.0
91.07,526.0,46.0,-828.0
91.194,297.0,18.0,-954.0
91.318,110.0,4.0,-1013.0
91.442,16.0,-5.0,-1037.0
92.65,-24.0,25.0,-1001.0
92.774,160.0,64.0,-961.0
92.898,405.0,102.0,-893.0
93.022,609.0,136.0,-801.0
93.148,710.0,162.0,-689.0
93.27,769.0,161.0,-604.0
93.394,777.0,156.0,-592.0
93.518,681.0,130.0,-692.0
93.642,449.0,104.0,-841.0
93.766,164.0,77.0,-952.0
93.89,-52.0,68.0,-990.0
94.714,6.0,-18.0,-1010.0
94.838,177.0,-54.0,-988.0
94.962,398.0,-60.0,-873.0
95.086,620.0,-65.0,-718.0
95.21,796.0,-25.0,-514.0
95.474,842.0,-1.0,-494.0
95.598,670.0,13.0,-652.0
95.722,410.0,4.0,-812.0
95.846,188.0,26.0,-918.0
95.97,32.0,9.0,-978.0
96.498,-41.0,-42.0,-1041.0
96.622,-10.0,-58.0,-1036.0
96.746,102.0,-106.0,-1002.0
96.87,310.0,-122.0,-945.0
96.994,564.0,-129.0,-814.0
97.118,761.0,-89.0,-632.0
97.242,878.0,-45.0,-438.0
97.366,925.0,-25.0,-372.0
97.491,869.0,-33.0,-461.0
97.614,697.0,-37.0,-658.0
97.738,462.0,-44.0,-833.0
97.862,234.0,-44.0,-936.0
97.986,58.0,-42.0,-980.0
99.09,20.0,-2.0,-1013.0
99.214,201.0,5.0,-958.0
99.34,461.0,24.0,-829.0
99.462,690.0,57.0,-592.0
99.586,860.0,66.0,-354.0
99.71,944.0,69.0,-237.0
99.834,918.0,66.0,-317.0
99.958,801.0,64.0,-520.0
100.082,596.0,65.0,-737.0
100.206,372.0,33.0,-882.0
100.331,149.0,16.0,-965.0
100.458,-5.0,-10.0,-1002.0
101.147,0.0,-9.0,-990.0
101.266,152.0,-24.0,-974.0
101.39,364.0,-50.0,-901.0
101.514,609.0,-58.0,-780.0
101.638,772.0,-40.0,-570.0
101.762,878.0,2.0,-401.0
101.886,892.0,37.0,-334.0
102.01,848.0,48.0,-438.0
102.134,696.0,9.0,-641.0
102.258,474.0,-5.0,-862.0
102.382,225.0,-17.0,-980.0
102.506,30.0,14.0,-1024.0
102.63,-81.0,13.0,-1021.0
103.454,6.0,-61.0,-1022.0
103.578,136.0,-92.0,-994.0
103.702,348.0,-106.0,-932.0
103.826,557.0,-104.0,-818.0
103.95,737.0,-66.0,-656.0
104.074,845.0,-45.0,-504.0
104.198,902.0,-26.0,-442.0
104.322,842.0,-48.0,-510.0
104.446,633.0,-77.0,-673.0
104.57,352.0,-84.0,-842.0
104.698,105.0,-73.0,-958.0
104.822,-28.0,-52.0,-1006.0
105.506,-57.0,-24.0,-1013.0
105.63,42.0,-29.0,-981.0
105.754,268.0,-21.0,-889.0
105.878,558.0,-33.0,-696.0
106.002,814.0,-26.0,-468.0
106.266,921.0,-17.0,-368.0
106.39,754.0,-40.0,-538.0
106.514,537.0,-33.0,-802.0
106.638,293.0,-56.0,-954.0
106.762,130.0,-42.0,-1036.0
106.886,-20.0,-32.0,-1012.0
107.01,-106.0,10.0,-1008.0
107.554,-13.0,38.0,-993.0
107.678,184.0,38.0,-934.0
107.802,460.0,52.0,-790.0
107.926,705.0,58.0,-618.0
108.05,869.0,58.0,-468.0
108.174,888.0,56.0,-464.0
108.298,753.0,72.0,-605.0
108.422,517.0,68.0,-808.0
108.546,260.0,33.0,-953.0
108.67,50.0,2.0,-1001.0
109.342,-30.0,14.0,-1012.0
109.466,102.0,17.0,-990.0
109.59,336.0,44.0,-918.0
109.714,597.0,80.0,-754.0
109.838,809.0,102.0,-526.0
109.962,917.0,97.0,-361.0
110.086,934.0,92.0,-370.0
110.21,817.0,78.0,-532.0
110.334,594.0,41.0,-757.0
110.458,290.0,-9.0,-914.0
110.582,42.0,-38.0,-992.0
110.706,-100.0,-38.0,-1000.0
111.11,-96.0,-12.0,-1028.0
111.234,-85.0,44.0,-1026.0
111.638,-36.0,124.0,-1014.0
111.762,82.0,136.0,-985.0
111.886,313.0,137.0,-884.0
112.01,613.0,121.0,-705.0
112.134,846.0,114.0,-452.0
112.258,958.0,126.0,-265.0
112.382,944.0,156.0,-257.0
112.506,773.0,134.0,-472.0
112.63,477.0,118.0,-752.0
112.754,153.0,108.0,-933.0
112.878,-70.0,110.0,-1028.0
113.006,-168.0,76.0,-1020.0
113.41,-142.0,10.0,-1041.0
113.534,-114.0,6.0,-1036.0
113.658,-54.0,29.0,-1022.0
113.782,80.0,40.0,-1006.0
113.906,264.0,28.0,-925.0
114.03,489.0,5.0,-820.0
114.154,678.0,1.0,-676.0
114.278,846.0,18.0,-538.0
114.542,844.0,53.0,-597.0
114.666,618.0,44.0,-776.0
114.79,346.0,30.0,-945.0
114.914,92.0,17.0,-998.0
115.038,-45.0,4.0,-1016.0
115.722,-65.0,-18.0,-1020.0
115.846,48.0,-24.0,-1008.0
115.97,226.0,-30.0,-966.0
116.094,418.0,-20.0,-877.0
116.218,621.0,-1.0,-744.0
116.342,800.0,14.0,-550.0
116.514,934.0,14.0,-421.0
116.59,928.0,38.0,-412.0
116.714,725.0,4.0,-578.0
116.838,462.0,16.0,-786.0
116.962,201.0,-12.0,-933.0
117.089,50.0,10.0,-993.0
117.214,-44.0,-9.0,-1008.0
118.178,80.0,-17.0,-950.0
118.302,314.0,-6.0,-869.0
118.426,605.0,22.0,-694.0
118.55,821.0,25.0,-498.0
118.674,936.0,36.0,-346.0
118.798,941.0,26.0,-368.0
118.922,793.0,18.0,-558.0
119.046,502.0,-16.0,-788.0
119.17,177.0,-45.0,-932.0
119.294,-41.0,-46.0,-977.0
119.418,-134.0,-50.0,-997.0
120.102,-25.0,25.0,-993.0
120.226,133.0,40.0,-969.0
120.35,346.0,18.0,-877.0
120.474,586.0,1.0,-744.0
120.598,788.0,-30.0,-570.0
120.862,864.0,-1.0,-584.0
120.986,614.0,-5.0,-793.0
121.11,312.0,-25.0,-966.0
121.234,60.0,-45.0,-1016.0
122.042,89.0,-32.0,-1000.0
122.166,266.0,-16.0,-934.0
122.29,522.0,-4.0,-788.0
122.414,786.0,-2.0,-606.0
122.538,916.0,17.0,-476.0
122.662,918.0,53.0,-506.0
122.786,728.0,50.0,-682.0
122.91,481.0,46.0,-888.0
123.034,201.0,40.0,-1005.0
123.158,24.0,49.0,-1033.0
123.422,-78.0,36.0,-1028.0
123.546,-100.0,13.0,-1026.0
123.95,-64.0,-16.0,-1018.0
124.074,74.0,-5.0,-994.0
124.198,285.0,5.0,-922.0
124.322,529.0,28.0,-806.0
124.446,718.0,41.0,-638.0
124.57,862.0,53.0,-505.0
124.694,881.0,52.0,-481.0
124.818,793.0,84.0,-608.0
124.942,550.0,62.0,-782.0
125.066,298.0,50.0,-924.0
125.191,53.0,8.0,-986.0
125.858,-30.0,-1.0,-1016.0
125.981,105.0,-41.0,-966.0
126.106,358.0,-52.0,-872.0
126.23,641.0,-48.0,-736.0
126.354,878.0,-16.0,-537.0
126.478,972.0,-4.0,-457.0
126.602,920.0,10.0,-506.0
126.726,733.0,8.0,-696.0
126.85,480.0,4.0,-865.0
126.974,201.0,-40.0,-973.0
127.098,-13.0,-49.0,-1016.0
127.782,-45.0,-101.0,-978.0
127.906,77.0,-92.0,-952.0
128.03,278.0,-70.0,-898.0
128.154,532.0,-2.0,-785.0
128.278,780.0,8.0,-585.0
128.402,926.0,-6.0,-416.0
128.526,928.0,-29.0,-392.0
128.65,820.0,-24.0,-501.0
128.774,640.0,-20.0,-689.0
128.898,400.0,-12.0,-848.0
129.022,153.0,-44.0,-954.0
129.146,-25.0,-56.0,-993.0
130.094,-10.0,40.0,-1009.0
130.218,116.0,69.0,-968.0
130.342,380.0,113.0,-856.0
130.466,645.0,161.0,-596.0
130.59,882.0,145.0,-310.0
130.714,956.0,118.0,-164.0
130.838,938.0,112.0,-276.0
130.962,770.0,136.0,-564.0
131.085,485.0,97.0,-818.0
131.21,210.0,40.0,-972.0
131.334,29.0,-5.0,-1006.0
131.878,-84.0,2.0,-1001.0
132.002,-66.0,-12.0,-993.0
132.126,40.0,-9.0,-984.0
132.249,205.0,10.0,-937.0
132.374,485.0,29.0,-805.0
132.498,733.0,36.0,-570.0
132.622,932.0,13.0,-318.0
132.886,956.0,14.0,-245.0
133.01,828.0,16.0,-490.0
133.134,644.0,42.0,-788.0
133.258,354.0,37.0,-950.0
133.381,112.0,46.0,-1017.0
133.506,-81.0,18.0,-1002.0
134.049,-136.0,5.0,-1020.0
134.178,-24.0,6.0,-1036.0
134.302,156.0,25.0,-950.0
134.425,469.0,38.0,-804.0
134.55,765.0,32.0,-504.0
134.674,972.0,24.0,-250.0
134.938,973.0,-8.0,-173.0
135.062,872.0,-8.0,-424.0
135.186,648.0,17.0,-684.0
135.31,342.0,4.0,-873.0
135.434,28.0,-22.0,-998.0
135.558,-149.0,-48.0,-1041.0
136.522,-76.0,17.0,-1029.0
136.646,-52.0,76.0,-1024.0
136.769,77.0,130.0,-965.0
136.894,322.0,180.0,-874.0
137.018,602.0,213.0,-678.0
137.142,834.0,164.0,-461.0
137.266,949.0,110.0,-218.0
137.53,958.0,72.0,-258.0
137.653,758.0,52.0,-540.0
137.778,460.0,34.0,-826.0
137.902,114.0,-14.0,-948.0
138.025,-76.0,-24.0,-997.0
138.694,-65.0,41.0,-973.0
138.817,156.0,57.0,-948.0
138.942,493.0,93.0,-796.0
139.066,760.0,112.0,-586.0
139.19,905.0,144.0,-322.0
139.314,961.0,106.0,-182.0
139.437,941.0,130.0,-209.0
139.562,862.0,148.0,-342.0
139.685,689.0,130.0,-606.0
139.831,474.0,100.0,-773.0
139.934,249.0,74.0,-934.0
140.057,73.0,112.0,-977.0
140.181,-38.0,86.0,-1038.0
140.305,-100.0,45.0,-1038.0
140.569,-136.0,-1.0,-1017.0
140.694,-56.0,14.0,-985.0
140.818,149.0,4.0,-974.0
140.942,357.0,18.0,-865.0
141.066,590.0,10.0,-769.0
141.189,710.0,28.0,-650.0
141.313,770.0,18.0,-676.0
141.437,661.0,13.0,-762.0
141.562,470.0,-24.0,-877.0
141.685,237.0,-24.0,-946.0
141.81,57.0,-42.0,-989.0
141.933,-54.0,-28.0,-1016.0
142.34,-36.0,-48.0,-1022.0
142.465,81.0,-40.0,-990.0
142.589,284.0,-36.0,-949.0
142.714,514.0,-29.0,-844.0
142.837,682.0,-33.0,-776.0
142.962,726.0,-34.0,-744.0
143.086,598.0,-32.0,-770.0
143.21,402.0,-46.0,-860.0
143.333,180.0,-57.0,-926.0
143.457,26.0,-53.0,-994.0
143.586,-77.0,-60.0,-1009.0
144.13,-72.0,-37.0,-1004.0
144.253,2.0,-28.0,-1002.0
144.378,125.0,2.0,-956.0
144.501,294.0,28.0,-882.0
144.625,482.0,73.0,-754.0
144.749,654.0,64.0,-640.0
144.873,812.0,78.0,-550.0
145.138,824.0,94.0,-601.0
145.261,649.0,78.0,-730.0
145.385,393.0,45.0,-872.0
145.51,129.0,-13.0,-946.0
145.633,-56.0,-60.0,-982.0
146.178,-69.0,-36.0,-1017.0
146.302,28.0,4.0,-1000.0
146.425,204.0,32.0,-965.0
146.553,454.0,30.0,-850.0
146.677,686.0,20.0,-704.0
146.802,844.0,13.0,-553.0
146.925,844.0,25.0,-514.0
147.049,726.0,41.0,-628.0
147.173,445.0,53.0,-802.0
147.297,169.0,58.0,-954.0
147.421,-65.0,32.0,-997.0
148.105,-8.0,-21.0,-1004.0
148.229,221.0,5.0,-917.0
148.353,493.0,-10.0,-824.0
148.477,742.0,-22.0,-688.0
148.601,817.0,-46.0,-573.0
148.726,861.0,-25.0,-534.0
148.85,796.0,-14.0,-612.0
148.973,593.0,-53.0,-770.0
149.097,297.0,-45.0,-897.0
149.222,6.0,-64.0,-964.0
149.346,-130.0,-24.0,-990.0
149.609,-156.0,-29.0,-1029.0
150.013,-65.0,-20.0,-1002.0
150.138,54.0,41.0,-933.0
150.261,273.0,36.0,-884.0
150.385,490.0,30.0,-806.0
150.51,670.0,-13.0,-772.0
150.777,686.0,26.0,-772.0
150.902,450.0,24.0,-866.0
151.025,161.0,24.0,-968.0
151.149,-89.0,12.0,-978.0
151.274,-161.0,5.0,-1013.0
151.397,-201.0,-26.0,-1009.0
151.521,-168.0,-44.0,-1013.0
151.645,-156.0,-58.0,-996.0
151.77,-68.0,-48.0,-1000.0
151.894,102.0,-80.0,-973.0
152.018,361.0,-82.0,-888.0
152.142,637.0,-50.0,-730.0
152.265,806.0,9.0,-588.0
152.389,832.0,44.0,-541.0
152.513,722.0,10.0,-676.0
152.637,484.0,12.0,-857.0
152.762,224.0,2.0,-984.0
152.886,20.0,9.0,-1008.0
153.289,-66.0,-6.0,-992.0
153.413,30.0,2.0,-961.0
153.537,204.0,0.0,-894.0
153.661,460.0,22.0,-844.0
153.785,662.0,28.0,-708.0
153.91,812.0,53.0,-572.0
154.173,830.0,33.0,-533.0
154.297,666.0,26.0,-685.0
154.421,414.0,10.0,-854.0
154.548,178.0,-6.0,-932.0
154.673,1.0,-20.0,-974.0
155.078,-56.0,-28.0,-1024.0
155.201,50.0,-10.0,-1020.0
155.325,242.0,4.0,-965.0
155.449,482.0,10.0,-825.0
155.573,706.0,-1.0,-657.0
155.698,846.0,-10.0,-488.0
155.822,890.0,0.0,-465.0
155.945,817.0,-8.0,-557.0
156.069,661.0,-8.0,-746.0
156.193,401.0,-34.0,-905.0
156.318,148.0,-33.0,-988.0
156.442,-53.0,-42.0,-1004.0
156.845,-84.0,-16.0,-1016.0
156.969,38.0,-1.0,-998.0
157.093,265.0,24.0,-946.0
157.217,496.0,72.0,-852.0
157.341,692.0,104.0,-693.0
157.465,800.0,121.0,-550.0
157.729,824.0,109.0,-554.0
157.853,670.0,122.0,-729.0
157.977,376.0,89.0,-882.0
158.101,108.0,76.0,-1005.0
158.225,-64.0,34.0,-1017.0
158.893,-12.0,33.0,-1002.0
159.017,109.0,41.0,-973.0
159.142,333.0,25.0,-933.0
159.265,521.0,2.0,-836.0
159.389,701.0,-20.0,-725.0
159.513,777.0,-20.0,-609.0
159.637,817.0,-13.0,-604.0
159.761,708.0,1.0,-682.0
159.886,518.0,8.0,-833.0
160.01,240.0,-4.0,-936.0
160.133,21.0,-8.0,-1004.0
160.677,-54.0,13.0,-1034.0
160.801,33.0,38.0,-1013.0
160.925,196.0,46.0,-973.0
161.049,409.0,45.0,-876.0
161.173,628.0,26.0,-752.0
161.297,753.0,28.0,-634.0
161.561,733.0,30.0,-665.0
161.685,580.0,10.0,-812.0
161.809,317.0,5.0,-938.0
161.933,98.0,9.0,-1004.0
162.057,-49.0,26.0,-1014.0
162.601,-33.0,16.0,-1022.0
162.725,140.0,13.0,-992.0
162.852,370.0,13.0,-913.0
162.977,664.0,-21.0,-824.0
163.102,833.0,-30.0,-642.0
163.226,926.0,-17.0,-513.0
163.35,892.0,28.0,-449.0
163.473,805.0,44.0,-564.0
163.597,573.0,30.0,-764.0
163.721,296.0,18.0,-932.0
163.845,40.0,21.0,-1036.0
164.249,-85.0,-8.0,-1030.0
164.373,-33.0,-26.0,-1006.0
164.498,142.0,-56.0,-984.0
164.621,361.0,-93.0,-904.0
164.745,593.0,-120.0,-768.0
164.869,752.0,-81.0,-576.0
164.993,881.0,-49.0,-394.0
165.257,894.0,-48.0,-400.0
165.381,714.0,-68.0,-594.0
165.505,486.0,-72.0,-786.0
165.629,194.0,-78.0,-933.0
165.753,8.0,-66.0,-990.0
166.017,-78.0,-88.0,-1005.0
166.142,-28.0,-73.0,-1006.0
166.265,96.0,-54.0,-1013.0
166.389,253.0,-62.0,-957.0
166.513,470.0,-77.0,-872.0
166.637,674.0,-89.0,-692.0
166.761,814.0,-72.0,-533.0
167.029,833.0,-58.0,-505.0
167.153,692.0,-78.0,-646.0
167.277,506.0,-56.0,-821.0
167.401,240.0,-56.0,-940.0
167.525,60.0,-17.0,-1005.0
167.649,-85.0,-44.0,-1020.0
167.913,13.0,-52.0,-1040.0
168.038,221.0,-54.0,-988.0
168.161,494.0,-60.0,-834.0
168.285,690.0,-53.0,-661.0
168.409,844.0,-69.0,-500.0
168.673,898.0,-88.0,-412.0
168.797,805.0,-69.0,-522.0
168.921,605.0,-50.0,-704.0
169.045,284.0,-60.0,-906.0
169.169,33.0,-44.0,-980.0
169.293,-114.0,-29.0,-994.0
169.417,-121.0,-25.0,-1004.0
169.541,-85.0,-32.0,-1010.0
169.665,52.0,-42.0,-1006.0
169.79,260.0,-48.0,-930.0
169.913,458.0,-52.0,-870.0
170.038,630.0,-72.0,-750.0
170.161,724.0,-89.0,-676.0
170.285,738.0,-104.0,-650.0
170.409,540.0,-82.0,-784.0
170.533,284.0,-97.0,-926.0
170.657,45.0,-96.0,-1018.0
170.785,-66.0,-108.0,-1010.0
171.049,-120.0,-97.0,-1016.0
171.313,-36.0,-94.0,-1017.0
171.437,60.0,-82.0,-986.0
171.561,253.0,-65.0,-913.0
171.685,478.0,-85.0,-806.0
171.809,654.0,-89.0,-698.0
171.933,745.0,-85.0,-610.0
172.198,798.0,-76.0,-580.0
172.321,710.0,-74.0,-684.0
172.445,538.0,-64.0,-820.0
172.569,298.0,-58.0,-933.0
172.693,96.0,-45.0,-986.0
172.817,-48.0,-96.0,-990.0
173.081,-126.0,-94.0,-1010.0
173.345,-61.0,-1.0,-1025.0
173.469,-22.0,-24.0,-1033.0
173.593,114.0,-18.0,-992.0
173.717,333.0,28.0,-917.0
173.841,618.0,56.0,-748.0
173.965,808.0,106.0,-525.0
174.089,920.0,73.0,-357.0
174.213,921.0,98.0,-332.0
174.337,818.0,44.0,-497.0
174.461,585.0,28.0,-736.0
174.585,268.0,-42.0,-900.0
174.712,1.0,-42.0,-985.0
175.117,-156.0,-17.0,-1016.0
175.241,-125.0,41.0,-1025.0
175.365,-44.0,110.0,-1009.0
175.489,113.0,90.0,-996.0
175.613,377.0,50.0,-850.0
175.737,662.0,14.0,-633.0
175.861,878.0,40.0,-328.0
175.985,968.0,57.0,-130.0
176.109,960.0,48.0,-97.0
176.233,893.0,45.0,-268.0
176.357,738.0,50.0,-533.0
176.482,476.0,45.0,-770.0
176.606,200.0,28.0,-909.0
176.729,-2.0,5.0,-992.0
176.853,-82.0,-60.0,-1000.0
177.257,-72.0,-98.0,-1024.0
177.381,-16.0,-108.0,-1002.0
177.505,146.0,-73.0,-957.0
177.629,429.0,-92.0,-798.0
177.753,734.0,-90.0,-498.0
177.877,929.0,-92.0,-144.0
178.001,978.0,-97.0,130.0
178.125,966.0,-108.0,224.0
178.249,945.0,-132.0,152.0
178.373,936.0,-142.0,-70.0
178.497,816.0,-148.0,-362.0
178.621,630.0,-129.0,-662.0
178.749,349.0,-112.0,-866.0
178.873,78.0,-69.0,-978.0
178.997,-118.0,-49.0,-1006.0
179.121,-193.0,-49.0,-1017.0
179.665,-73.0,-54.0,-1016.0
179.789,78.0,-20.0,-990.0
179.913,341.0,1.0,-880.0
180.037,652.0,36.0,-601.0
180.161,881.0,60.0,-234.0
180.285,946.0,65.0,138.0
180.409,936.0,44.0,328.0
180.533,908.0,21.0,377.0
180.657,933.0,22.0,276.0
180.781,933.0,30.0,93.0
180.905,892.0,34.0,-214.0
181.03,697.0,16.0,-554.0
181.153,408.0,-37.0,-814.0
181.277,105.0,-97.0,-962.0
181.401,-70.0,-118.0,-1000.0
182.085,-9.0,-9.0,-989.0
182.209,185.0,52.0,-924.0
182.333,478.0,117.0,-801.0
182.457,773.0,117.0,-450.0
182.581,913.0,156.0,-44.0
182.705,946.0,164.0,266.0
182.833,940.0,193.0,264.0
182.957,982.0,182.0,73.0
183.082,940.0,144.0,-229.0
183.205,744.0,120.0,-557.0
183.329,428.0,84.0,-822.0
183.453,154.0,48.0,-949.0
183.577,-20.0,16.0,-1002.0
183.701,-93.0,-44.0,-1010.0
184.369,-34.0,-44.0,-1008.0
184.493,122.0,-44.0,-1000.0
184.617,413.0,-44.0,-904.0
184.741,713.0,-18.0,-674.0
184.865,906.0,40.0,-292.0
184.989,964.0,81.0,5.0
185.253,984.0,77.0,34.0
185.377,944.0,46.0,-202.0
185.501,793.0,21.0,-532.0
185.625,510.0,16.0,-776.0
185.749,210.0,-5.0,-926.0
185.873,-1.0,-8.0,-973.0
186.697,-52.0,-41.0,-1028.0
186.821,61.0,0.0,-976.0
186.945,310.0,46.0,-890.0
187.072,640.0,77.0,-741.0
187.197,886.0,72.0,-454.0
187.321,997.0,52.0,-138.0
187.445,986.0,57.0,126.0
187.569,982.0,54.0,180.0
187.701,969.0,42.0,138.0
187.817,973.0,56.0,-33.0
187.941,929.0,22.0,-306.0
188.065,804.0,24.0,-617.0
188.189,550.0,-21.0,-838.0
188.313,262.0,-24.0,-958.0
188.437,6.0,-62.0,-997.0
188.981,-105.0,26.0,-998.0
189.105,-105.0,62.0,-1025.0
189.369,-10.0,61.0,-1005.0
189.493,212.0,62.0,-861.0
189.617,601.0,21.0,-606.0
189.741,874.0,52.0,-264.0
189.865,1017.0,42.0,1.0
189.989,984.0,52.0,106.0
190.113,980.0,42.0,29.0
190.237,934.0,24.0,-194.0
190.361,794.0,20.0,-488.0
190.485,556.0,21.0,-760.0
190.609,278.0,-10.0,-912.0
190.733,85.0,-56.0,-981.0
190.857,-36.0,-102.0,-1008.0
191.105,-100.0,-69.0,-1026.0
191.369,-76.0,-30.0,-1001.0
191.493,49.0,-14.0,-980.0
191.617,253.0,5.0,-946.0
191.741,482.0,34.0,-834.0
191.865,717.0,38.0,-632.0
191.99,877.0,50.0,-334.0
192.113,966.0,37.0,-102.0
192.377,981.0,45.0,-49.0
192.501,933.0,44.0,-241.0
192.625,810.0,26.0,-481.0
192.749,584.0,26.0,-732.0
192.873,336.0,12.0,-890.0
192.997,81.0,4.0,-976.0
193.121,-72.0,-22.0,-996.0
193.385,-194.0,8.0,-1022.0
194.209,-146.0,54.0,-1012.0
194.333,8.0,72.0,-958.0
194.457,328.0,53.0,-890.0
194.581,633.0,14.0,-716.0
194.705,889.0,-41.0,-506.0
194.829,973.0,-57.0,-282.0
195.093,984.0,-38.0,-172.0
195.217,948.0,-37.0,-301.0
195.345,866.0,-57.0,-477.0
195.469,669.0,-32.0,-705.0
195.593,432.0,-5.0,-844.0
195.717,146.0,20.0,-948.0
195.841,-77.0,-9.0,-969.0
195.965,-237.0,-9.0,-988.0
196.229,-280.0,53.0,-993.0
196.913,-128.0,156.0,-956.0
197.037,100.0,136.0,-912.0
197.161,454.0,125.0,-726.0
197.285,806.0,84.0,-450.0
197.409,984.0,77.0,-189.0
197.533,1000.0,53.0,-108.0
197.657,946.0,78.0,-202.0
197.781,796.0,76.0,-461.0
197.905,568.0,121.0,-708.0
198.029,265.0,98.0,-912.0
198.153,34.0,96.0,-964.0
198.277,-81.0,40.0,-1001.0
198.681,-101.0,52.0,-1026.0
198.949,-62.0,106.0,-1004.0
199.073,28.0,128.0,-1005.0
199.197,182.0,136.0,-922.0
199.321,441.0,142.0,-761.0
199.448,726.0,137.0,-521.0
199.573,940.0,138.0,-312.0
199.697,1005.0,128.0,-185.0
199.821,970.0,146.0,-194.0
199.945,896.0,164.0,-321.0
200.069,686.0,146.0,-561.0
200.196,382.0,88.0,-785.0
200.317,37.0,22.0,-932.0
200.441,-197.0,-5.0,-953.0
200.565,-313.0,18.0,-1037.0
200.689,-342.0,12.0,-1034.0
200.813,-332.0,-5.0,-1073.0
200.937,-292.0,-57.0,-1009.0
201.061,-238.0,-76.0,-1025.0
201.465,-54.0,-21.0,-966.0
201.589,205.0,-21.0,-886.0
201.713,588.0,-37.0,-649.0
201.837,896.0,-30.0,-344.0
201.961,1024.0,-30.0,-90.0
202.085,1013.0,-12.0,-74.0
202.209,972.0,-34.0,-276.0
202.333,841.0,-18.0,-534.0
202.457,576.0,-8.0,-761.0
202.581,277.0,1.0,-913.0
202.705,54.0,-4.0,-976.0
203.389,-45.0,-4.0,-1009.0
203.516,94.0,40.0,-957.0
203.641,378.0,52.0,-828.0
203.765,713.0,56.0,-540.0
203.888,964.0,26.0,-257.0
204.013,1042.0,-2.0,-29.0
204.137,1017.0,-13.0,-53.0
204.261,945.0,-36.0,-220.0
204.385,797.0,-5.0,-486.0
204.509,540.0,12.0,-721.0
204.633,265.0,52.0,-876.0
204.757,58.0,41.0,-950.0
204.881,-46.0,40.0,-982.0
205.425,-72.0,-28.0,-1028.0
205.549,-6.0,-41.0,-994.0
205.673,194.0,-46.0,-909.0
205.796,529.0,-80.0,-718.0
205.921,857.0,-60.0,-456.0
206.045,997.0,-45.0,-208.0
206.169,988.0,-2.0,-114.0
206.293,1030.0,-16.0,-145.0
206.417,898.0,-30.0,-401.0
206.541,624.0,-36.0,-676.0
206.665,205.0,-64.0,-926.0
206.789,-14.0,-73.0,-1006.0
206.913,-114.0,-101.0,-1006.0
207.036,-138.0,-93.0,-1025.0
207.441,-73.0,-44.0,-1009.0
207.569,58.0,-49.0,-1014.0
207.692,290.0,-8.0,-837.0
207.817,569.0,44.0,-696.0
207.94,798.0,121.0,-382.0
208.064,930.0,150.0,-226.0
208.189,966.0,122.0,-82.0
208.313,894.0,129.0,-240.0
208.437,701.0,122.0,-494.0
208.56,509.0,152.0,-757.0
208.685,314.0,33.0,-902.0
208.809,170.0,10.0,-992.0
208.933,21.0,-48.0,-1025.0
209.057,-84.0,9.0,-1028.0
209.46,-133.0,40.0,-1014.0
209.585,-101.0,85.0,-998.0
209.709,-1.0,137.0,-964.0
209.833,217.0,173.0,-910.0
209.957,474.0,201.0,-745.0
210.081,776.0,201.0,-496.0
210.205,922.0,190.0,-254.0
210.329,1009.0,181.0,-236.0
210.453,905.0,192.0,-444.0
210.576,710.0,201.0,-680.0
210.701,429.0,181.0,-874.0
210.825,120.0,97.0,-936.0
210.948,-52.0,28.0,-992.0
211.496,-85.0,-21.0,-1026.0
211.62,52.0,-30.0,-974.0
211.745,309.0,-30.0,-893.0
211.869,620.0,9.0,-702.0
211.993,860.0,60.0,-444.0
212.116,982.0,73.0,-210.0
212.24,996.0,68.0,-164.0
212.365,884.0,40.0,-357.0
212.488,684.0,29.0,-620.0
212.613,392.0,37.0,-845.0
212.737,148.0,24.0,-949.0
212.861,-26.0,25.0,-994.0
213.529,-45.0,-60.0,-1018.0
213.653,90.0,-40.0,-965.0
213.777,298.0,6.0,-808.0
213.901,650.0,42.0,-602.0
214.025,880.0,53.0,-336.0
214.149,1030.0,60.0,-192.0
214.273,968.0,36.0,-153.0
214.397,898.0,6.0,-352.0
214.521,732.0,-29.0,-596.0
214.645,524.0,-40.0,-832.0
214.769,268.0,-57.0,-945.0
214.893,76.0,-68.0,-998.0
215.016,-38.0,-77.0,-1008.0
215.42,-96.0,-45.0,-1028.0
215.548,-61.0,-24.0,-1013.0
215.673,48.0,25.0,-965.0
215.796,185.0,98.0,-1068.0
215.92,528.0,136.0,-890.0
216.045,764.0,174.0,-609.0
216.169,994.0,174.0,-148.0
216.293,980.0,185.0,-40.0
216.416,952.0,174.0,-182.0
216.541,790.0,104.0,-461.0
216.664,562.0,68.0,-753.0
216.788,273.0,29.0,-925.0
216.913,65.0,34.0,-990.0
217.176,-69.0,36.0,-925.0
217.3,-72.0,6.0,-945.0
217.424,-84.0,-13.0,-932.0
217.689,-106.0,-22.0,-1009.0
217.812,12.0,-94.0,-989.0
217.941,256.0,-97.0,-893.0
218.065,589.0,-113.0,-685.0
218.189,873.0,-53.0,-408.0
218.312,996.0,-41.0,-197.0
218.436,992.0,-34.0,-197.0
218.561,829.0,-45.0,-418.0
218.685,600.0,-50.0,-705.0
218.809,294.0,-68.0,-905.0
218.933,65.0,-57.0,-978.0
219.057,-74.0,-62.0,-992.0
219.568,-40.0,-76.0,-1008.0
219.693,124.0,-62.0,-953.0
219.817,348.0,-40.0,-852.0
219.941,632.0,-18.0,-652.0
220.065,864.0,2.0,-373.0
220.189,992.0,30.0,-132.0
220.312,1010.0,30.0,-69.0
220.436,953.0,30.0,-246.0
220.56,808.0,-6.0,-522.0
220.685,558.0,-13.0,-769.0
220.808,261.0,-48.0,-905.0
220.932,25.0,-52.0,-969.0
221.057,-105.0,-64.0,-1002.0
221.6,-100.0,-49.0,-1004.0
221.724,37.0,-68.0,-992.0
221.848,294.0,-44.0,-881.0
221.972,638.0,-37.0,-664.0
222.097,898.0,16.0,-384.0
222.22,1002.0,25.0,-196.0
222.344,968.0,29.0,-213.0
222.468,854.0,26.0,-406.0
222.592,610.0,50.0,-674.0
222.716,336.0,68.0,-877.0
222.84,90.0,90.0,-969.0
223.105,-37.0,57.0,-1016.0
223.229,-93.0,29.0,-1020.0
223.352,-137.0,-5.0,-1020.0
223.74,-82.0,-26.0,-978.0
223.865,85.0,-21.0,-942.0
223.988,352.0,9.0,-857.0
224.113,616.0,21.0,-712.0
224.237,862.0,36.0,-448.0
224.36,972.0,21.0,-240.0
224.484,1008.0,42.0,-280.0
224.608,885.0,37.0,-442.0
224.733,678.0,44.0,-698.0
224.857,393.0,36.0,-869.0
224.98,132.0,24.0,-988.0
225.104,-28.0,6.0,-1022.0
225.369,-121.0,-30.0,-1052.0
225.492,-105.0,-22.0,-1034.0
225.616,-130.0,-10.0,-1048.0
225.741,-130.0,54.0,-1022.0
225.864,-65.0,74.0,-1061.0
225.988,105.0,60.0,-986.0
226.112,378.0,-5.0,-882.0
226.237,604.0,-17.0,-637.0
226.36,865.0,-8.0,-358.0
226.484,953.0,9.0,-152.0
226.609,1004.0,-33.0,-182.0
226.733,889.0,-44.0,-378.0
226.856,720.0,-68.0,-618.0
226.981,453.0,-66.0,-761.0
227.104,161.0,-97.0,-884.0
227.228,-25.0,-92.0,-948.0
227.896,-96.0,-28.0,-1010.0
228.02,-40.0,1.0,-1006.0
228.144,130.0,78.0,-1034.0
228.268,366.0,102.0,-944.0
228.392,632.0,184.0,-796.0
228.516,781.0,188.0,-493.0
228.64,904.0,220.0,-328.0
228.764,913.0,205.0,-305.0
228.888,790.0,217.0,-524.0
229.012,566.0,192.0,-745.0
229.137,292.0,129.0,-908.0
229.261,78.0,62.0,-946.0
229.384,-80.0,48.0,-974.0
229.929,-72.0,8.0,-1028.0
230.052,-30.0,22.0,-1008.0
230.177,92.0,20.0,-974.0
230.3,281.0,37.0,-917.0
230.425,545.0,18.0,-773.0
230.548,800.0,36.0,-552.0
230.672,949.0,16.0,-292.0
230.936,954.0,22.0,-204.0
231.06,848.0,52.0,-456.0
231.184,641.0,66.0,-704.0
231.308,361.0,40.0,-905.0
231.436,53.0,22.0,-970.0
231.563,-130.0,13.0,-1009.0
231.828,-182.0,-1.0,-1022.0
232.233,-98.0,4.0,-1009.0
232.356,53.0,22.0,-973.0
232.48,290.0,72.0,-868.0
232.604,601.0,73.0,-681.0
232.728,848.0,68.0,-402.0
232.853,976.0,50.0,-165.0
232.977,1004.0,66.0,-72.0
233.1,921.0,97.0,-221.0
233.224,741.0,92.0,-496.0
233.348,496.0,82.0,-770.0
233.473,221.0,49.0,-917.0
233.596,41.0,70.0,-978.0
233.72,-80.0,62.0,-988.0
233.844,-110.0,64.0,-1016.0
234.389,-17.0,-38.0,-1014.0
234.512,105.0,-29.0,-926.0
234.636,341.0,-41.0,-865.0
234.76,552.0,-29.0,-730.0
234.884,809.0,-50.0,-534.0
235.008,932.0,-45.0,-321.0
235.133,1014.0,-58.0,-224.0
235.256,905.0,-70.0,-384.0
235.38,764.0,-61.0,-624.0
235.504,522.0,-33.0,-781.0
235.631,288.0,-17.0,-878.0
235.756,81.0,-22.0,-925.0
235.88,-25.0,-61.0,-1057.0
236.005,-68.0,-69.0,-1054.0
236.408,-13.0,-100.0,-1006.0
236.532,105.0,-101.0,-969.0
236.656,366.0,-118.0,-906.0
236.78,642.0,-78.0,-741.0
236.904,769.0,-13.0,-912.0
237.03,866.0,30.0,-662.0
237.152,872.0,28.0,-620.0
237.276,873.0,-24.0,-357.0
237.4,661.0,-18.0,-650.0
237.524,385.0,-14.0,-870.0
237.649,117.0,-8.0,-981.0
237.772,-29.0,-34.0,-978.0
238.456,-8.0,-74.0,-1016.0
238.58,130.0,-61.0,-985.0
238.704,364.0,-49.0,-856.0
238.828,665.0,-24.0,-654.0
238.952,872.0,4.0,-392.0
239.216,961.0,36.0,-292.0
239.34,836.0,32.0,-470.0
239.464,637.0,17.0,-701.0
239.588,382.0,14.0,-878.0
239.715,176.0,-18.0,-988.0
239.843,-38.0,-14.0,-1010.0
240.244,-142.0,-14.0,-1024.0
240.789,24.0,13.0,-1005.0
240.912,205.0,33.0,-956.0
241.036,497.0,52.0,-818.0
241.16,712.0,76.0,-628.0
241.284,869.0,56.0,-444.0
241.548,880.0,28.0,-444.0
241.672,741.0,61.0,-517.0
241.796,505.0,80.0,-712.0
241.92,224.0,85.0,-834.0
242.044,0.0,82.0,-1000.0
242.728,-81.0,-6.0,-1017.0
242.852,18.0,-36.0,-1001.0
242.976,214.0,-62.0,-936.0
243.1,452.0,-65.0,-817.0
243.224,720.0,-69.0,-620.0
243.348,886.0,-34.0,-400.0
243.612,921.0,13.0,-364.0
243.736,762.0,17.0,-594.0
243.86,542.0,33.0,-820.0
243.987,308.0,25.0,-948.0
244.112,104.0,17.0,-997.0
244.236,-24.0,-12.0,-1021.0
244.78,-58.0,21.0,-1020.0
244.904,-16.0,37.0,-1014.0
245.032,112.0,60.0,-941.0
245.156,333.0,72.0,-874.0
245.28,598.0,110.0,-736.0
245.404,793.0,136.0,-605.0
245.528,898.0,126.0,-432.0
245.652,912.0,114.0,-388.0
245.776,836.0,86.0,-474.0
245.9,676.0,77.0,-673.0
246.024,462.0,68.0,-842.0
246.148,265.0,40.0,-945.0
246.272,122.0,22.0,-981.0
246.397,26.0,4.0,-1004.0
247.22,-97.0,5.0,-1022.0
247.344,-9.0,-4.0,-1021.0
247.468,153.0,-2.0,-1006.0
247.592,372.0,20.0,-924.0
247.716,585.0,52.0,-789.0
247.84,782.0,53.0,-617.0
247.964,862.0,20.0,-488.0
248.088,821.0,16.0,-500.0
248.216,669.0,50.0,-645.0
248.34,488.0,104.0,-834.0
248.464,290.0,96.0,-982.0
248.588,101.0,48.0,-1005.0
248.712,-20.0,1.0,-1022.0
249.396,2.0,-30.0,-989.0
249.521,162.0,-44.0,-953.0
249.644,402.0,-22.0,-868.0
249.768,598.0,6.0,-773.0
249.892,768.0,32.0,-626.0
250.016,857.0,16.0,-494.0
250.281,888.0,1.0,-490.0
250.404,718.0,4.0,-669.0
250.528,485.0,12.0,-837.0
250.652,253.0,-10.0,-941.0
250.776,108.0,-25.0,-986.0
250.9,14.0,-45.0,-1017.0
251.568,-54.0,-37.0,-1061.0
251.692,-24.0,-30.0,-1034.0
251.816,85.0,-5.0,-1018.0
251.94,312.0,1.0,-948.0
252.064,544.0,37.0,-792.0
252.188,774.0,65.0,-584.0
252.455,877.0,74.0,-438.0
252.58,749.0,40.0,-593.0
252.704,558.0,-5.0,-770.0
252.828,369.0,-69.0,-898.0
252.953,184.0,-117.0,-968.0
253.077,90.0,-141.0,-1005.0
253.9,45.0,-108.0,-1018.0
254.024,166.0,-112.0,-962.0
254.148,373.0,-89.0,-872.0
254.272,570.0,-36.0,-688.0
254.396,797.0,0.0,-505.0
254.52,925.0,21.0,-325.0
254.644,962.0,21.0,-325.0
254.768,869.0,10.0,-477.0
254.892,670.0,-8.0,-701.0
255.016,417.0,-32.0,-874.0
255.14,178.0,-53.0,-961.0
255.264,36.0,-88.0,-1016.0
255.388,-26.0,-122.0,-1030.0
256.072,-94.0,-118.0,-953.0
256.196,1.0,-106.0,-928.0
256.32,197.0,-84.0,-886.0
256.444,402.0,-21.0,-841.0
256.568,637.0,18.0,-720.0
256.696,780.0,56.0,-537.0
256.824,902.0,64.0,-453.0
256.948,817.0,6.0,-446.0
257.072,696.0,-46.0,-604.0
257.196,462.0,-94.0,-777.0
257.32,282.0,-88.0,-914.0
257.444,49.0,-89.0,-990.0
257.568,-113.0,-110.0,-1014.0
258.252,-136.0,-146.0,-1022.0
258.376,-33.0,-144.0,-986.0
258.5,150.0,-149.0,-942.0
258.624,392.0,-130.0,-836.0
258.748,621.0,-81.0,-704.0
258.872,794.0,-30.0,-537.0
258.996,906.0,-16.0,-418.0
259.12,929.0,-21.0,-437.0
259.244,842.0,-25.0,-604.0
259.368,622.0,-52.0,-800.0
259.492,333.0,-73.0,-928.0
259.616,53.0,-80.0,-964.0
259.74,-105.0,-118.0,-988.0
260.004,-126.0,-168.0,-1025.0
260.128,-106.0,-152.0,-986.0
260.252,-81.0,-140.0,-1005.0
260.516,-53.0,-120.0,-1029.0
260.64,69.0,-73.0,-1025.0
260.768,190.0,-36.0,-946.0
260.896,378.0,-77.0,-905.0
261.02,445.0,-140.0,-816.0
261.144,572.0,-168.0,-838.0
261.268,602.0,-170.0,-780.0
261.392,676.0,-161.0,-760.0
261.656,644.0,-189.0,-830.0
261.78,541.0,-204.0,-936.0
261.904,360.0,-209.0,-1006.0
262.028,158.0,-214.0,-1010.0
262.152,16.0,-189.0,-990.0
262.276,-20.0,-168.0,-996.0
262.4,-13.0,-129.0,-1006.0
262.664,6.0,-112.0,-1029.0
262.788,90.0,-65.0,-1056.0
262.912,214.0,1.0,-1045.0
263.036,346.0,46.0,-989.0
263.16,482.0,64.0,-876.0
263.284,582.0,76.0,-757.0
263.408,670.0,85.0,-673.0
263.532,713.0,120.0,-640.0
263.656,713.0,129.0,-662.0
263.78,664.0,140.0,-708.0
263.904,565.0,109.0,-813.0
264.028,400.0,50.0,-909.0
264.152,198.0,18.0,-945.0
264.276,66.0,2.0,-970.0
264.4,-10.0,25.0,-974.0
265.068,9.0,18.0,-1042.0
265.192,38.0,46.0,-1018.0
265.316,140.0,66.0,-994.0
265.44,277.0,82.0,-912.0
265.568,470.0,92.0,-814.0
265.692,592.0,93.0,-716.0
265.816,692.0,84.0,-680.0
265.94,717.0,42.0,-678.0
266.064,740.0,10.0,-740.0
266.188,656.0,-20.0,-785.0
266.312,496.0,-32.0,-890.0
266.436,226.0,-68.0,-942.0
266.56,-8.0,-68.0,-997.0
266.684,-164.0,-68.0,-1001.0
266.948,-192.0,-57.0,-1038.0
267.072,-146.0,-76.0,-1044.0
267.196,-108.0,-113.0,-1016.0
267.32,-58.0,-137.0,-990.0
267.444,32.0,-148.0,-985.0
267.568,200.0,-98.0,-956.0
267.692,441.0,-46.0,-858.0
267.816,666.0,-21.0,-697.0
267.94,833.0,-28.0,-542.0
268.204,828.0,-61.0,-521.0
268.328,680.0,-76.0,-669.0
268.452,453.0,-104.0,-837.0
268.579,221.0,-121.0,-933.0
268.704,53.0,-157.0,-996.0
269.528,49.0,-69.0,-1001.0
269.652,241.0,-48.0,-952.0
269.776,486.0,-30.0,-820.0
269.9,733.0,-16.0,-605.0
270.024,896.0,8.0,-357.0
270.148,988.0,24.0,-198.0
270.272,984.0,1.0,-169.0
270.396,941.0,-20.0,-308.0
270.52,854.0,-76.0,-505.0
270.644,706.0,-96.0,-720.0
270.768,493.0,-133.0,-848.0
270.892,274.0,-118.0,-938.0
271.016,78.0,-126.0,-969.0
271.14,-32.0,-126.0,-998.0
271.824,-78.0,-146.0,-1010.0
271.948,-2.0,-133.0,-998.0
272.072,134.0,-121.0,-969.0
272.196,310.0,-86.0,-909.0
272.32,522.0,-62.0,-794.0
272.445,733.0,-32.0,-605.0
272.568,892.0,4.0,-417.0
272.692,962.0,17.0,-286.0
272.819,957.0,32.0,-282.0
272.948,898.0,17.0,-392.0
273.072,778.0,2.0,-549.0
273.196,618.0,-29.0,-728.0
273.32,421.0,-73.0,-860.0
273.444,249.0,-100.0,-962.0
273.568,80.0,-118.0,-1000.0
273.692,-25.0,-144.0,-1006.0
274.096,-90.0,-193.0,-1005.0
274.36,-4.0,-204.0,-997.0
274.484,144.0,-209.0,-961.0
274.608,330.0,-202.0,-908.0
274.732,528.0,-174.0,-780.0
274.856,697.0,-162.0,-614.0
274.98,849.0,-118.0,-434.0
275.104,914.0,-101.0,-308.0
275.228,942.0,-97.0,-277.0
275.352,910.0,-114.0,-346.0
275.476,824.0,-150.0,-493.0
275.6,689.0,-170.0,-660.0
275.724,481.0,-201.0,-813.0
275.848,280.0,-205.0,-918.0
275.972,100.0,-200.0,-977.0
276.096,0.0,-193.0,-994.0
276.923,-129.0,-149.0,-994.0
277.049,-26.0,-152.0,-982.0
277.172,169.0,-162.0,-965.0
277.296,400.0,-164.0,-890.0
277.42,617.0,-132.0,-748.0
277.544,788.0,-74.0,-517.0
277.668,905.0,-45.0,-338.0
277.932,954.0,-60.0,-266.0
278.056,930.0,-62.0,-382.0
278.18,789.0,-53.0,-544.0
278.304,585.0,-29.0,-740.0
278.428,338.0,-30.0,-892.0
278.552,152.0,-60.0,-1000.0
278.676,18.0,-82.0,-1025.0
278.8,-104.0,-89.0,-1017.0
279.484,-77.0,-85.0,-1008.0
279.607,65.0,-84.0,-1001.0
279.732,266.0,-70.0,-949.0
279.856,493.0,-48.0,-834.0
279.98,710.0,-18.0,-658.0
280.104,870.0,-4.0,-472.0
280.228,934.0,6.0,-353.0
280.352,924.0,-2.0,-356.0
280.476,858.0,10.0,-466.0
280.6,713.0,-1.0,-666.0
280.724,528.0,20.0,-805.0
280.848,332.0,-20.0,-918.0
280.976,125.0,-53.0,-970.0
281.1,-32.0,-74.0,-1013.0
281.224,-138.0,-38.0,-1029.0
281.488,-165.0,6.0,-1012.0
281.752,-122.0,-13.0,-1014.0
281.876,-24.0,-16.0,-1013.0
282.0,124.0,-45.0,-1012.0
282.124,269.0,-66.0,-1008.0
282.247,433.0,-73.0,-902.0
282.372,649.0,-84.0,-701.0
282.496,833.0,-62.0,-460.0
282.76,889.0,-28.0,-382.0
282.884,808.0,-58.0,-597.0
283.008,629.0,-77.0,-813.0
283.132,402.0,-102.0,-945.0
283.256,137.0,-90.0,-989.0
283.38,-25.0,-65.0,-1002.0
283.924,-72.0,29.0,-1017.0
284.048,-37.0,56.0,-1012.0
284.172,36.0,66.0,-1016.0
284.296,206.0,49.0,-956.0
284.419,437.0,29.0,-840.0
284.544,692.0,20.0,-648.0
284.668,858.0,10.0,-450.0
284.932,872.0,-46.0,-448.0
285.059,722.0,-56.0,-638.0
285.184,510.0,-77.0,-812.0
285.308,270.0,-56.0,-897.0
285.432,116.0,-85.0,-958.0
285.556,-1.0,-78.0,-993.0
285.96,-61.0,-82.0,-1024.0
286.364,0.0,-6.0,-996.0
286.488,154.0,28.0,-982.0
286.611,360.0,34.0,-916.0
286.736,554.0,20.0,-773.0
286.86,726.0,-34.0,-600.0
286.984,849.0,-56.0,-476.0
287.108,868.0,-69.0,-493.0
287.231,794.0,-61.0,-593.0
287.356,633.0,-56.0,-761.0
287.48,445.0,-6.0,-897.0
287.604,200.0,54.0,-986.0
287.728,40.0,73.0,-1024.0
287.992,-38.0,42.0,-1022.0
288.396,8.0,34.0,-1013.0
288.52,121.0,30.0,-973.0
288.644,296.0,32.0,-870.0
288.768,533.0,18.0,-729.0
288.892,742.0,14.0,-518.0
289.016,905.0,2.0,-337.0
289.142,954.0,-1.0,-250.0
289.268,932.0,1.0,-338.0
289.392,796.0,-16.0,-536.0
289.516,590.0,-34.0,-740.0
289.64,280.0,-32.0,-900.0
289.764,61.0,-49.0,-986.0
290.307,-56.0,-36.0,-1032.0
290.432,66.0,-26.0,-1004.0
290.556,256.0,-8.0,-928.0
290.68,512.0,24.0,-782.0
290.803,726.0,49.0,-582.0
290.927,906.0,69.0,-444.0
291.052,957.0,89.0,-353.0
291.176,910.0,89.0,-424.0
291.299,750.0,74.0,-557.0
291.424,548.0,44.0,-760.0
291.548,294.0,38.0,-896.0
291.672,81.0,22.0,-972.0
292.356,-64.0,-38.0,-1042.0
292.479,68.0,-36.0,-1017.0
292.604,282.0,-32.0,-949.0
292.728,528.0,-13.0,-772.0
292.851,765.0,1.0,-536.0
292.975,913.0,21.0,-297.0
293.239,940.0,25.0,-249.0
293.367,813.0,0.0,-478.0
293.491,568.0,-42.0,-728.0
293.615,305.0,-76.0,-894.0
293.74,50.0,-85.0,-961.0
293.864,-77.0,-68.0,-994.0
294.407,-94.0,-37.0,-1024.0
294.531,-22.0,-9.0,-1012.0
294.655,160.0,2.0,-978.0
294.779,409.0,-5.0,-865.0
294.903,666.0,-5.0,-624.0
295.027,886.0,6.0,-332.0
295.291,1024.0,21.0,-232.0
295.416,862.0,13.0,-493.0
295.539,613.0,-28.0,-769.0
295.664,249.0,-58.0,-942.0
295.788,-4.0,-82.0,-1000.0
296.472,-68.0,-66.0,-1025.0
296.595,45.0,-65.0,-992.0
296.719,280.0,-69.0,-913.0
296.843,580.0,-60.0,-768.0
296.968,809.0,-46.0,-540.0
297.092,940.0,-21.0,-337.0
297.216,981.0,-17.0,-249.0
297.34,938.0,-46.0,-362.0
297.467,758.0,-106.0,-609.0
297.591,437.0,-136.0,-836.0
297.716,113.0,-113.0,-978.0
297.84,-89.0,-68.0,-1008.0
298.383,-61.0,-76.0,-1021.0
298.507,52.0,-78.0,-1001.0
298.632,249.0,-112.0,-937.0
298.755,480.0,-108.0,-806.0
298.879,696.0,-82.0,-642.0
299.003,846.0,-42.0,-460.0
299.128,949.0,-6.0,-365.0
299.251,1068.0,85.0,125.0
299.375,973.0,76.0,-56.0
299.499,772.0,50.0,-234.0
299.623,426.0,-68.0,-892.0
299.747,218.0,-70.0,-954.0
299.871,72.0,-72.0,-1012.0
300.276,49.0,-56.0,-1002.0
300.399,210.0,-58.0,-962.0
300.523,452.0,-72.0,-834.0
300.647,677.0,-80.0,-638.0
300.771,844.0,-66.0,-401.0
300.895,936.0,-30.0,-197.0
301.02,977.0,-6.0,-76.0
301.144,972.0,-9.0,-114.0
301.267,888.0,-10.0,-301.0
301.391,706.0,-42.0,-601.0
301.52,417.0,-65.0,-838.0
301.643,146.0,-85.0,-974.0
301.767,-42.0,-76.0,-1005.0
302.312,-33.0,-6.0,-1017.0
302.435,96.0,53.0,-1010.0
302.559,297.0,89.0,-913.0
302.683,505.0,89.0,-706.0
302.807,729.0,76.0,-476.0
302.931,861.0,85.0,-318.0
303.055,910.0,118.0,-364.0
303.18,769.0,118.0,-522.0
303.303,474.0,81.0,-760.0
303.427,166.0,60.0,-925.0
303.551,-41.0,9.0,-985.0
303.675,-80.0,-57.0,-1006.0
304.079,-30.0,-118.0,-1020.0
304.203,80.0,-116.0,-973.0
304.327,322.0,-98.0,-868.0
304.451,609.0,-81.0,-654.0
304.575,856.0,-62.0,-440.0
304.699,962.0,-54.0,-322.0
304.823,922.0,-70.0,-434.0
304.947,718.0,-56.0,-646.0
305.072,416.0,-104.0,-848.0
305.196,109.0,-104.0,-954.0
305.319,-58.0,-136.0,-998.0
305.567,-42.0,-98.0,-1013.0
305.691,81.0,-76.0,-1026.0
305.815,278.0,-68.0,-952.0
305.939,488.0,-14.0,-833.0
306.063,705.0,-4.0,-628.0
306.188,841.0,36.0,-472.0
306.312,914.0,12.0,-372.0
306.435,928.0,-12.0,-336.0
306.559,909.0,-42.0,-361.0
306.684,858.0,-56.0,-434.0
306.807,784.0,-77.0,-542.0
306.932,641.0,-125.0,-686.0
307.055,492.0,-164.0,-805.0
307.179,305.0,-142.0,-914.0
307.303,144.0,-101.0,-981.0
307.427,13.0,-58.0,-1020.0
308.111,-82.0,-10.0,-1048.0
308.235,54.0,0.0,-992.0
308.359,276.0,9.0,-904.0
308.483,572.0,36.0,-733.0
308.607,772.0,85.0,-530.0
308.731,885.0,122.0,-346.0
308.855,928.0,104.0,-277.0
308.979,897.0,78.0,-354.0
309.103,769.0,45.0,-540.0
309.227,549.0,-4.0,-754.0
309.469,250.0,-46.0,-916.0
309.49,9.0,-57.0,-1008.0
309.883,-120.0,-62.0,-1025.0
310.287,2.0,-16.0,-980.0
310.411,192.0,-28.0,-949.0
310.535,460.0,-25.0,-856.0
310.659,670.0,2.0,-689.0
310.784,842.0,10.0,-478.0
311.048,906.0,-34.0,-404.0
311.171,792.0,-24.0,-597.0
311.295,578.0,-37.0,-814.0
311.419,325.0,-52.0,-972.0
311.543,53.0,-46.0,-1009.0
311.667,-96.0,-29.0,-1010.0
312.072,-85.0,-29.0,-1022.0
312.195,72.0,-37.0,-1026.0
312.32,269.0,-48.0,-966.0
312.444,512.0,-41.0,-870.0
312.567,676.0,-46.0,-704.0
312.691,821.0,-49.0,-569.0
312.815,874.0,-58.0,-466.0
312.939,866.0,-45.0,-437.0
313.063,828.0,-18.0,-506.0
313.187,702.0,-20.0,-638.0
313.311,490.0,-13.0,-801.0
313.435,180.0,-20.0,-908.0
313.562,-36.0,-30.0,-1000.0
313.688,-121.0,-52.0,-1016.0
314.091,-1.0,-98.0,-1012.0
314.215,45.0,-81.0,-998.0
314.339,145.0,-46.0,-996.0
314.463,257.0,0.0,-926.0
314.587,474.0,12.0,-798.0
314.711,670.0,12.0,-588.0
314.835,852.0,6.0,-406.0
314.959,928.0,8.0,-322.0
315.083,897.0,-28.0,-440.0
315.207,718.0,-62.0,-652.0
315.332,430.0,-97.0,-876.0
315.455,150.0,-84.0,-969.0
315.58,-49.0,-61.0,-1016.0
315.983,-40.0,-37.0,-1018.0
316.135,110.0,-18.0,-984.0
316.231,337.0,1.0,-941.0
316.355,538.0,29.0,-833.0
316.479,696.0,37.0,-672.0
316.603,809.0,21.0,-512.0
316.727,869.0,16.0,-397.0
316.851,908.0,8.0,-401.0
316.976,852.0,10.0,-489.0
317.099,724.0,-28.0,-630.0
317.223,576.0,-41.0,-813.0
317.347,381.0,-25.0,-930.0
317.471,180.0,-25.0,-1016.0
317.599,16.0,-40.0,-1009.0
318.283,68.0,-48.0,-1005.0
318.407,280.0,2.0,-950.0
318.531,541.0,13.0,-793.0
318.655,784.0,18.0,-597.0
318.78,910.0,1.0,-385.0
319.043,936.0,-16.0,-336.0
319.167,809.0,-37.0,-521.0
319.291,604.0,-74.0,-736.0
319.415,365.0,-77.0,-916.0
319.539,141.0,-106.0,-1000.0
319.663,0.0,-112.0,-1025.0
320.347,-9.0,-106.0,-1030.0
320.472,94.0,-33.0,-1012.0
320.595,288.0,-20.0,-996.0
320.719,506.0,-14.0,-862.0
320.843,701.0,-65.0,-666.0
320.967,864.0,-38.0,-428.0
321.091,932.0,-13.0,-270.0
321.215,957.0,-25.0,-292.0
321.339,861.0,-61.0,-429.0
321.463,669.0,-97.0,-670.0
321.587,377.0,-85.0,-866.0
321.714,81.0,-77.0,-986.0
322.399,-33.0,-52.0,-1024.0
322.523,81.0,-24.0,-1002.0
322.647,292.0,0.0,-916.0
322.771,554.0,5.0,-792.0
322.895,766.0,20.0,-609.0
323.019,910.0,32.0,-428.0
323.143,952.0,48.0,-298.0
323.267,936.0,49.0,-276.0
323.391,829.0,36.0,-401.0
323.515,662.0,4.0,-612.0
323.639,437.0,-30.0,-849.0
323.763,196.0,-21.0,-962.0
323.888,-8.0,12.0,-1008.0
324.152,-136.0,-9.0,-1037.0
324.555,84.0,-20.0,-1060.0
324.679,296.0,-32.0,-985.0
324.804,566.0,-36.0,-808.0
324.927,764.0,-4.0,-577.0
325.051,894.0,30.0,-374.0
325.175,986.0,82.0,-278.0
325.299,986.0,86.0,-320.0
325.423,900.0,70.0,-460.0
325.547,705.0,32.0,-637.0
325.671,456.0,-22.0,-818.0
325.795,160.0,-26.0,-968.0
325.923,-26.0,-60.0,-1029.0
326.467,-34.0,-12.0,-1006.0
326.591,37.0,20.0,-1001.0
326.715,230.0,38.0,-937.0
326.839,518.0,45.0,-785.0
326.963,774.0,46.0,-554.0
327.087,929.0,57.0,-350.0
327.351,937.0,48.0,-286.0
327.475,833.0,42.0,-473.0
327.599,662.0,57.0,-692.0
327.723,418.0,69.0,-894.0
327.847,178.0,86.0,-984.0
327.971,29.0,53.0,-1024.0
328.515,9.0,21.0,-1014.0
328.639,172.0,20.0,-984.0
328.763,416.0,12.0,-881.0
328.887,658.0,18.0,-728.0
329.011,822.0,33.0,-514.0
329.135,946.0,74.0,-353.0
329.259,962.0,76.0,-274.0
329.383,930.0,90.0,-357.0
329.507,765.0,77.0,-530.0
329.631,546.0,58.0,-764.0
329.755,245.0,26.0,-922.0
329.879,26.0,-6.0,-1009.0
330.147,-85.0,-50.0,-1036.0
330.411,-53.0,-26.0,-1048.0
330.675,21.0,26.0,-1018.0
330.799,241.0,-12.0,-957.0
330.923,510.0,-14.0,-768.0
331.047,770.0,5.0,-514.0
331.171,906.0,45.0,-229.0
331.435,966.0,52.0,-177.0
331.559,856.0,86.0,-418.0
331.683,624.0,80.0,-690.0
331.807,317.0,61.0,-868.0
331.931,96.0,1.0,-977.0
332.055,-22.0,-18.0,-1021.0
332.459,26.0,-41.0,-1010.0
332.583,148.0,-34.0,-956.0
332.707,369.0,-28.0,-853.0
332.831,644.0,-5.0,-678.0
332.955,844.0,26.0,-397.0
333.079,948.0,29.0,-137.0
333.343,974.0,14.0,12.0
333.467,966.0,5.0,-101.0
333.591,910.0,-4.0,-302.0
333.715,732.0,-22.0,-558.0
333.839,478.0,-56.0,-788.0
333.963,204.0,-72.0,-944.0
334.09,65.0,-85.0,-1008.0
334.776,-18.0,5.0,-1036.0
334.899,122.0,32.0,-1010.0
335.023,360.0,25.0,-925.0
335.147,646.0,24.0,-732.0
335.271,861.0,45.0,-472.0
335.395,949.0,89.0,-236.0
335.52,974.0,98.0,-172.0
335.643,905.0,70.0,-304.0
335.767,774.0,48.0,-556.0
335.891,560.0,-1.0,-798.0
336.015,292.0,-2.0,-941.0
336.139,88.0,-20.0,-1014.0
336.823,64.0,24.0,-1028.0
336.947,249.0,46.0,-980.0
337.071,498.0,50.0,-837.0
337.195,717.0,46.0,-658.0
337.319,846.0,50.0,-448.0
337.443,917.0,77.0,-269.0
337.567,938.0,96.0,-200.0
337.691,900.0,76.0,-290.0
337.815,793.0,18.0,-490.0
337.939,586.0,-20.0,-736.0
338.063,334.0,-17.0,-912.0
338.187,104.0,-9.0,-1020.0
339.015,70.0,-5.0,-1021.0
339.139,266.0,-28.0,-912.0
339.263,573.0,-49.0,-754.0
339.387,797.0,-36.0,-532.0
339.511,934.0,6.0,-313.0
339.775,938.0,13.0,-214.0
339.899,814.0,-44.0,-422.0
340.023,552.0,-77.0,-696.0
340.147,246.0,-72.0,-892.0
340.271,28.0,-68.0,-978.0
340.395,-73.0,-97.0,-1002.0
340.799,-72.0,-61.0,-1021.0
340.923,12.0,-69.0,-1057.0
341.047,137.0,-58.0,-1034.0
341.172,325.0,-52.0,-962.0
341.295,544.0,-5.0,-772.0
341.419,756.0,4.0,-528.0
341.543,906.0,2.0,-316.0
341.667,960.0,0.0,-177.0
341.791,957.0,-20.0,-198.0
341.915,905.0,-25.0,-328.0
342.039,762.0,-30.0,-564.0
342.163,530.0,-6.0,-788.0
342.287,248.0,8.0,-938.0
342.414,28.0,13.0,-1002.0
343.099,-65.0,-41.0,-1024.0
343.223,98.0,-89.0,-1006.0
343.347,354.0,-92.0,-909.0
343.471,665.0,-78.0,-728.0
343.595,857.0,-13.0,-470.0
343.719,966.0,25.0,-270.0
343.983,916.0,73.0,-292.0
344.107,765.0,20.0,-493.0
344.231,540.0,-21.0,-738.0
344.355,281.0,-70.0,-901.0
344.479,62.0,-60.0,-998.0
345.163,-32.0,-58.0,-1014.0
345.287,89.0,-74.0,-985.0
345.411,280.0,-57.0,-930.0
345.535,517.0,-20.0,-800.0
345.659,730.0,53.0,-578.0
345.783,893.0,84.0,-273.0
345.907,976.0,90.0,-70.0
346.031,994.0,81.0,-33.0
346.155,941.0,106.0,-230.0
346.279,812.0,104.0,-478.0
346.403,584.0,92.0,-745.0
346.527,296.0,44.0,-898.0
346.655,48.0,4.0,-1001.0
347.339,-62.0,-52.0,-1029.0
347.463,77.0,-32.0,-1009.0
347.587,318.0,2.0,-924.0
347.711,594.0,29.0,-724.0
347.835,804.0,46.0,-429.0
347.959,934.0,48.0,-109.0
348.083,969.0,58.0,84.0
348.207,985.0,54.0,133.0
348.331,945.0,49.0,-61.0
348.455,824.0,28.0,-362.0
348.579,574.0,16.0,-686.0
348.703,240.0,32.0,-888.0
348.827,10.0,28.0,-989.0
349.355,-38.0,40.0,-1021.0
349.479,85.0,81.0,-997.0
349.603,292.0,145.0,-933.0
349.727,601.0,138.0,-745.0
349.851,836.0,150.0,-500.0
349.975,961.0,110.0,-282.0
350.099,944.0,110.0,-254.0
350.223,862.0,114.0,-382.0
350.347,674.0,130.0,-618.0
350.471,410.0,141.0,-818.0
350.595,124.0,110.0,-948.0
350.722,-62.0,86.0,-1012.0
351.267,-45.0,24.0,-1010.0
351.391,113.0,0.0,-986.0
351.515,353.0,-25.0,-898.0
351.639,613.0,-16.0,-698.0
351.763,826.0,-2.0,-436.0
351.887,936.0,-1.0,-257.0
352.011,949.0,-37.0,-258.0
352.135,870.0,-53.0,-422.0
352.259,680.0,-77.0,-637.0
352.383,402.0,-70.0,-837.0
352.507,93.0,-60.0,-954.0
353.191,32.0,-62.0,-1012.0
353.315,258.0,-73.0,-976.0
353.439,548.0,-93.0,-792.0
353.563,797.0,-72.0,-478.0
353.687,940.0,-26.0,-117.0
353.951,958.0,-6.0,-74.0
354.075,805.0,-33.0,-393.0
354.199,520.0,-37.0,-720.0
354.323,189.0,-46.0,-926.0
354.447,-14.0,-68.0,-1016.0
354.994,2.0,-93.0,-1028.0
355.119,182.0,-106.0,-977.0
355.243,465.0,-136.0,-888.0
355.367,745.0,-88.0,-626.0
355.491,933.0,-28.0,-266.0
355.615,1016.0,12.0,24.0
355.739,1008.0,10.0,66.0
355.863,932.0,-10.0,-177.0
355.987,733.0,-10.0,-509.0
356.111,422.0,-2.0,-813.0
356.235,118.0,5.0,-981.0
356.359,-32.0,-20.0,-1045.0
356.763,-42.0,-5.0,-1028.0
356.887,1.0,9.0,-1037.0
357.011,161.0,24.0,-993.0
357.135,406.0,-8.0,-892.0
357.259,650.0,-34.0,-669.0
357.383,840.0,-37.0,-416.0
357.507,945.0,-13.0,-202.0
357.771,948.0,60.0,-208.0
357.895,784.0,34.0,-449.0
358.019,492.0,5.0,-730.0
358.143,156.0,-53.0,-932.0
358.267,-58.0,-62.0,-1017.0
358.951,26.0,-70.0,-1009.0
359.075,225.0,-38.0,-957.0
359.203,502.0,-5.0,-774.0
359.327,752.0,17.0,-506.0
359.451,916.0,25.0,-224.0
359.575,982.0,56.0,-106.0
359.699,998.0,76.0,-157.0
359.823,898.0,88.0,-362.0
359.947,660.0,36.0,-618.0
360.071,302.0,-14.0,-856.0
360.194,-10.0,-57.0,-989.0
360.443,-133.0,-100.0,-1030.0
360.707,-68.0,-117.0,-1001.0
360.831,-57.0,-70.0,-1008.0
361.095,22.0,-26.0,-1032.0
361.219,180.0,-12.0,-968.0
361.343,430.0,9.0,-778.0
361.467,700.0,40.0,-482.0
361.591,897.0,26.0,-216.0
361.714,982.0,30.0,-122.0
361.839,976.0,57.0,-205.0
361.963,857.0,57.0,-413.0
362.086,672.0,29.0,-654.0
362.211,374.0,-42.0,-856.0
362.335,128.0,-70.0,-968.0
362.458,-38.0,-86.0,-1017.0
362.723,-78.0,-45.0,-1030.0
362.987,-1.0,36.0,-1026.0
363.114,134.0,70.0,-990.0
363.239,346.0,126.0,-849.0
363.363,653.0,133.0,-641.0
363.487,856.0,124.0,-418.0
363.611,950.0,124.0,-309.0
363.735,881.0,113.0,-369.0
363.859,738.0,110.0,-568.0
363.983,488.0,74.0,-765.0
364.107,173.0,85.0,-906.0
364.231,-54.0,60.0,-969.0
365.055,77.0,0.0,-988.0
365.179,308.0,49.0,-872.0
365.302,614.0,86.0,-682.0
365.426,837.0,81.0,-460.0
365.551,952.0,50.0,-292.0
365.674,973.0,28.0,-225.0
365.799,906.0,30.0,-366.0
365.925,681.0,25.0,-590.0
366.047,333.0,4.0,-832.0
366.171,33.0,-13.0,-965.0
366.715,-64.0,-42.0,-1034.0
366.839,-45.0,-34.0,-1025.0
366.963,62.0,-40.0,-996.0
367.086,289.0,-9.0,-908.0
367.211,568.0,4.0,-730.0
367.338,797.0,6.0,-484.0
367.463,928.0,-13.0,-293.0
367.727,948.0,-29.0,-333.0
367.851,804.0,-13.0,-546.0
367.975,560.0,-26.0,-781.0
368.098,217.0,-36.0,-949.0
368.222,-25.0,-53.0,-1012.0
369.046,18.0,-21.0,-1029.0
369.17,196.0,-4.0,-940.0
369.294,446.0,-5.0,-760.0
369.419,712.0,45.0,-476.0
369.542,874.0,53.0,-241.0
369.667,980.0,78.0,-165.0
369.79,946.0,76.0,-258.0
369.915,789.0,57.0,-536.0
370.038,489.0,49.0,-782.0
370.162,180.0,5.0,-977.0
370.286,-8.0,-20.0,-1030.0
371.11,97.0,-80.0,-984.0
371.235,340.0,-70.0,-888.0
371.359,589.0,-26.0,-656.0
371.483,812.0,-20.0,-413.0
371.609,920.0,1.0,-241.0
371.734,948.0,-1.0,-284.0
371.859,845.0,0.0,-469.0
371.982,568.0,-45.0,-706.0
372.107,234.0,-85.0,-898.0
372.231,-12.0,-124.0,-1006.0
372.355,-110.0,-126.0,-1030.0
372.619,-74.0,-92.0,-1022.0
373.022,58.0,-52.0,-1009.0
373.146,274.0,-16.0,-928.0
373.271,572.0,34.0,-704.0
373.395,813.0,80.0,-420.0
373.519,958.0,92.0,-185.0
373.642,981.0,69.0,-172.0
373.766,894.0,46.0,-357.0
373.891,665.0,24.0,-617.0
374.015,348.0,0.0,-852.0
374.138,53.0,-42.0,-972.0
374.962,-49.0,-44.0,-1040.0
375.086,25.0,-62.0,-1038.0
375.211,246.0,-117.0,-950.0
375.335,521.0,-122.0,-757.0
375.459,796.0,-74.0,-482.0
375.582,925.0,12.0,-258.0
375.706,957.0,42.0,-241.0
375.834,861.0,17.0,-412.0
375.958,641.0,1.0,-670.0
376.082,322.0,-38.0,-873.0
376.206,53.0,-42.0,-976.0
376.331,-88.0,-61.0,-1004.0
376.455,-132.0,-46.0,-1020.0
376.578,-114.0,-57.0,-1029.0
376.702,-82.0,-61.0,-1036.0
377.246,53.0,-24.0,-1036.0
377.371,218.0,-40.0,-988.0
377.495,489.0,-42.0,-826.0
377.618,729.0,-28.0,-533.0
377.743,906.0,-12.0,-253.0
377.867,985.0,-9.0,-97.0
377.991,990.0,-42.0,-170.0
378.114,865.0,-52.0,-389.0
378.238,620.0,-24.0,-656.0
378.363,273.0,-45.0,-914.0
378.487,25.0,-74.0,-1029.0
378.61,-109.0,-132.0,-1064.0
379.154,-60.0,-65.0,-1021.0
379.278,53.0,-9.0,-989.0
379.402,273.0,44.0,-908.0
379.526,548.0,89.0,-701.0
379.65,768.0,138.0,-457.0
379.777,914.0,168.0,-250.0
379.902,968.0,169.0,-257.0
380.027,890.0,129.0,-432.0
380.15,674.0,114.0,-666.0
380.275,381.0,74.0,-869.0
380.398,76.0,56.0,-966.0
381.222,-29.0,-5.0,-1009.0
381.346,150.0,-41.0,-1006.0
381.471,414.0,-12.0,-858.0
381.594,710.0,25.0,-598.0
381.718,898.0,86.0,-304.0
381.842,944.0,104.0,-238.0
381.966,694.0,46.0,-476.0
382.09,412.0,2.0,-742.0
382.214,106.0,-62.0,-958.0
382.338,24.0,-68.0,-996.0
382.882,-42.0,-81.0,-1028.0
383.006,98.0,-60.0,-1020.0
383.13,360.0,-30.0,-920.0
383.254,670.0,-1.0,-669.0
383.378,897.0,52.0,-340.0
383.642,968.0,70.0,-208.0
383.766,825.0,24.0,-460.0
383.89,568.0,-66.0,-736.0
384.018,258.0,-94.0,-905.0
384.142,24.0,-142.0,-988.0
384.266,-66.0,-148.0,-1004.0
384.53,-34.0,-158.0,-1021.0
384.794,-1.0,-125.0,-1010.0
384.918,170.0,-105.0,-946.0
385.042,493.0,-76.0,-820.0
385.166,760.0,-20.0,-621.0
385.29,936.0,17.0,-434.0
385.554,884.0,48.0,-440.0
385.678,742.0,22.0,-614.0
385.803,526.0,-12.0,-814.0
385.926,237.0,-30.0,-942.0
386.05,61.0,-32.0,-1012.0
386.594,-16.0,-36.0,-1010.0
386.718,177.0,-45.0,-974.0
386.846,466.0,-90.0,-834.0
386.97,744.0,-76.0,-600.0
387.094,906.0,-45.0,-337.0
387.358,926.0,33.0,-281.0
387.484,804.0,20.0,-526.0
387.606,513.0,4.0,-760.0
387.731,150.0,-41.0,-922.0
387.854,-113.0,-76.0,-982.0
387.978,-192.0,-102.0,-1022.0
388.506,-41.0,-40.0,-1017.0
388.63,41.0,-2.0,-1008.0
388.754,249.0,57.0,-932.0
388.878,518.0,122.0,-785.0
389.002,768.0,154.0,-568.0
389.127,894.0,161.0,-394.0
389.25,909.0,173.0,-362.0
389.374,818.0,149.0,-514.0
389.498,616.0,134.0,-709.0
389.622,364.0,88.0,-880.0
389.746,145.0,78.0,-972.0
389.87,25.0,60.0,-1025.0
390.554,81.0,-22.0,-994.0
390.678,265.0,-33.0,-916.0
390.802,500.0,-26.0,-766.0
390.926,706.0,-9.0,-590.0
391.05,865.0,5.0,-422.0
391.174,937.0,-5.0,-364.0
391.298,873.0,-28.0,-466.0
391.422,702.0,-48.0,-657.0
391.546,477.0,-42.0,-836.0
391.671,248.0,-2.0,-937.0
391.794,76.0,13.0,-1002.0
392.058,-74.0,-32.0,-1064.0
392.182,-70.0,-82.0,-1053.0
392.45,-53.0,-69.0,-1026.0
392.574,-34.0,-36.0,-1038.0
392.699,93.0,-25.0,-1045.0
392.822,258.0,-20.0,-962.0
392.946,482.0,1.0,-785.0
393.07,712.0,18.0,-552.0
393.194,873.0,12.0,-372.0
393.318,985.0,6.0,-276.0
393.442,941.0,-4.0,-334.0
393.566,848.0,-20.0,-518.0
393.69,616.0,-42.0,-724.0
393.814,352.0,-58.0,-878.0
393.938,88.0,-65.0,-965.0
394.063,-44.0,-81.0,-1025.0
394.886,-12.0,-40.0,-1038.0
395.011,125.0,-25.0,-981.0
395.134,360.0,-32.0,-854.0
395.258,616.0,-42.0,-632.0
395.382,862.0,-60.0,-404.0
395.506,958.0,-42.0,-241.0
395.63,976.0,-29.0,-249.0
395.754,850.0,-50.0,-414.0
395.878,624.0,-96.0,-648.0
396.002,290.0,-108.0,-849.0
396.126,37.0,-112.0,-973.0
396.794,-40.0,-82.0,-1025.0
396.918,64.0,-73.0,-994.0
397.042,277.0,-57.0,-918.0
397.166,546.0,-22.0,-750.0
397.29,774.0,-9.0,-492.0
397.554,748.0,-18.0,-317.0
397.678,696.0,8.0,-486.0
397.802,594.0,30.0,-661.0
397.926,505.0,48.0,-812.0
398.05,229.0,34.0,-926.0
398.174,20.0,12.0,-996.0
398.998,5.0,-24.0,-1024.0
399.122,129.0,-41.0,-1014.0
399.246,342.0,-61.0,-945.0
399.37,578.0,-46.0,-776.0
399.494,774.0,-16.0,-505.0
399.618,900.0,20.0,-254.0
399.742,969.0,26.0,-94.0
399.866,988.0,40.0,-70.0
399.99,973.0,44.0,-150.0
400.115,865.0,40.0,-370.0
400.238,644.0,2.0,-633.0
400.362,329.0,-30.0,-862.0
400.486,62.0,-60.0,-976.0
401.315,-58.0,-40.0,-1018.0
401.438,66.0,-17.0,-1028.0
401.562,280.0,45.0,-970.0
401.686,549.0,76.0,-792.0
401.81,784.0,104.0,-486.0
401.934,930.0,74.0,-229.0
402.058,986.0,60.0,-166.0
402.182,962.0,60.0,-284.0
402.306,861.0,70.0,-486.0
402.43,657.0,45.0,-685.0
402.554,348.0,9.0,-872.0
402.678,117.0,-20.0,-988.0
403.362,-10.0,32.0,-1008.0
403.486,149.0,49.0,-969.0
403.61,433.0,10.0,-933.0
403.734,690.0,-14.0,-789.0
403.858,864.0,-17.0,-586.0
403.982,918.0,24.0,-372.0
404.106,933.0,29.0,-325.0
404.23,896.0,50.0,-432.0
404.354,790.0,40.0,-561.0
404.478,617.0,21.0,-726.0
404.602,378.0,-25.0,-850.0
404.728,158.0,-14.0,-965.0
405.15,-36.0,-12.0,-1025.0
405.414,-50.0,-17.0,-1037.0
405.539,5.0,-10.0,-1038.0
405.662,170.0,0.0,-988.0
405.786,406.0,-2.0,-837.0
405.91,717.0,16.0,-577.0
406.034,910.0,61.0,-306.0
406.158,976.0,124.0,-144.0
406.282,954.0,168.0,-137.0
406.406,893.0,164.0,-266.0
406.53,778.0,113.0,-502.0
406.654,512.0,44.0,-741.0
406.778,148.0,-5.0,-886.0
406.902,-132.0,-41.0,-988.0
407.166,-241.0,-48.0,-1033.0
407.29,-192.0,-45.0,-1004.0
407.554,-77.0,-48.0,-992.0
407.678,112.0,-22.0,-958.0
407.802,424.0,-4.0,-810.0
407.926,724.0,-22.0,-600.0
408.05,909.0,-33.0,-344.0
408.298,962.0,-8.0,-209.0
408.422,904.0,-12.0,-344.0
408.546,765.0,-22.0,-554.0
408.67,510.0,-38.0,-778.0
408.797,221.0,-38.0,-914.0
408.922,-8.0,-50.0,-997.0
409.186,-125.0,-41.0,-1025.0
409.45,-38.0,-61.0,-1036.0
409.574,74.0,-57.0,-1018.0
409.698,322.0,-54.0,-809.0
409.822,594.0,-14.0,-598.0
409.946,840.0,-10.0,-330.0
410.07,941.0,18.0,-214.0
410.334,969.0,38.0,-113.0
410.458,945.0,33.0,-238.0
410.582,824.0,21.0,-464.0
410.706,570.0,22.0,-725.0
410.831,264.0,16.0,-924.0
410.954,32.0,6.0,-1017.0
411.078,-89.0,-14.0,-1025.0
411.763,-53.0,-25.0,-1016.0
411.886,78.0,-9.0,-997.0
412.01,324.0,-14.0,-920.0
412.134,626.0,2.0,-692.0
412.258,858.0,5.0,-394.0
412.382,969.0,32.0,-130.0
412.506,960.0,65.0,-138.0
412.63,896.0,65.0,-289.0
412.754,737.0,69.0,-566.0
412.881,526.0,5.0,-768.0
413.006,230.0,-8.0,-920.0
413.13,10.0,-33.0,-998.0
414.094,-5.0,-2.0,-1029.0
414.219,94.0,14.0,-1013.0
414.342,234.0,30.0,-988.0
414.466,406.0,38.0,-916.0
414.59,592.0,50.0,-777.0
414.714,766.0,40.0,-596.0
414.838,876.0,40.0,-434.0
415.102,914.0,25.0,-358.0
415.226,828.0,33.0,-454.0
415.351,606.0,54.0,-657.0
415.474,297.0,45.0,-853.0
415.598,44.0,-5.0,-978.0
415.722,-76.0,-68.0,-1012.0
416.546,-6.0,-73.0,-1073.0
416.671,118.0,-76.0,-1054.0
416.794,332.0,-40.0,-950.0
416.918,588.0,2.0,-724.0
417.042,806.0,34.0,-492.0
417.166,954.0,25.0,-294.0
417.434,984.0,25.0,-222.0
417.558,886.0,53.0,-385.0
417.682,689.0,36.0,-626.0
417.806,393.0,17.0,-844.0
417.93,108.0,-30.0,-992.0
418.754,-41.0,-18.0,-1028.0
418.878,50.0,-14.0,-1014.0
419.002,264.0,-14.0,-952.0
419.126,549.0,-16.0,-792.0
419.25,788.0,0.0,-538.0
419.374,922.0,13.0,-302.0
419.638,964.0,40.0,-149.0
419.762,940.0,41.0,-240.0
419.886,836.0,44.0,-430.0
420.01,644.0,29.0,-664.0
420.134,374.0,5.0,-858.0
420.258,108.0,-1.0,-968.0
421.222,5.0,-18.0,-1012.0
421.346,241.0,-30.0,-932.0
421.47,546.0,-33.0,-745.0
421.594,804.0,1.0,-460.0
421.722,953.0,22.0,-156.0
421.846,993.0,32.0,14.0
421.97,989.0,40.0,50.0
422.094,970.0,37.0,-42.0
422.218,918.0,42.0,-212.0
422.342,744.0,34.0,-484.0
422.466,464.0,30.0,-753.0
422.59,118.0,21.0,-950.0
422.714,-77.0,8.0,-1012.0
423.258,-69.0,-36.0,-1038.0
423.382,-36.0,-80.0,-1030.0
423.646,138.0,-146.0,-976.0
423.77,384.0,-138.0,-846.0
423.894,672.0,-88.0,-581.0
424.018,885.0,-57.0,-298.0
424.142,966.0,-28.0,-156.0
424.266,977.0,-37.0,-229.0
424.39,850.0,-56.0,-434.0
424.514,634.0,-78.0,-692.0
424.638,324.0,-82.0,-892.0
424.762,108.0,-69.0,-1014.0
424.886,-37.0,-52.0,-1020.0
425.43,-109.0,-18.0,-1024.0
425.554,-44.0,33.0,-992.0
425.678,154.0,57.0,-962.0
425.806,384.0,61.0,-862.0
425.93,648.0,17.0,-708.0
426.054,813.0,17.0,-488.0
426.178,937.0,30.0,-306.0
426.442,945.0,61.0,-262.0
426.566,873.0,60.0,-413.0
426.69,708.0,46.0,-613.0
426.814,416.0,33.0,-820.0
426.938,146.0,10.0,-954.0
427.622,48.0,8.0,-1005.0
427.746,232.0,16.0,-926.0
427.87,505.0,14.0,-789.0
427.994,758.0,2.0,-580.0
428.118,921.0,17.0,-372.0
428.366,948.0,77.0,-332.0
428.49,772.0,69.0,-540.0
428.614,492.0,36.0,-800.0
428.738,161.0,22.0,-956.0
429.702,14.0,-18.0,-1022.0
429.826,136.0,-28.0,-1005.0
429.95,357.0,-24.0,-906.0
430.074,622.0,-5.0,-708.0
430.202,826.0,22.0,-421.0
430.326,937.0,38.0,-186.0
430.45,958.0,32.0,-126.0
430.574,894.0,9.0,-278.0
430.699,733.0,-8.0,-540.0
430.822,465.0,-8.0,-732.0
430.946,204.0,-38.0,-873.0
431.07,34.0,-65.0,-944.0
431.754,-1.0,-40.0,-1029.0
431.878,189.0,14.0,-934.0
432.002,456.0,50.0,-804.0
432.126,722.0,45.0,-606.0
432.25,868.0,25.0,-432.0
432.514,928.0,16.0,-321.0
432.638,836.0,34.0,-470.0
432.762,646.0,22.0,-686.0
432.886,446.0,-21.0,-877.0
433.01,156.0,-76.0,-984.0
433.138,-21.0,-92.0,-1018.0
433.262,-134.0,-45.0,-1026.0
433.806,-4.0,-13.0,-1032.0
433.93,104.0,20.0,-1050.0
434.054,361.0,37.0,-944.0
434.178,648.0,74.0,-696.0
434.305,880.0,54.0,-356.0
434.43,964.0,49.0,-108.0
434.554,976.0,38.0,-64.0
434.682,950.0,21.0,-204.0
434.806,820.0,16.0,-469.0
434.93,589.0,41.0,-688.0
435.054,285.0,60.0,-870.0
435.178,74.0,60.0,-957.0
435.722,18.0,-16.0,-1026.0
435.846,158.0,-52.0,-1069.0
435.97,370.0,-44.0,-952.0
436.094,580.0,-4.0,-812.0
436.218,750.0,68.0,-566.0
436.342,852.0,96.0,-420.0
436.606,930.0,74.0,-289.0
436.73,884.0,32.0,-410.0
436.854,742.0,29.0,-616.0
436.978,514.0,-5.0,-837.0
437.102,244.0,-6.0,-978.0
437.226,61.0,-60.0,-1018.0
437.91,-16.0,-1.0,-1034.0
438.033,134.0,-22.0,-998.0
438.158,377.0,-10.0,-876.0
438.282,658.0,-24.0,-690.0
438.405,857.0,2.0,-441.0
438.534,950.0,12.0,-240.0
438.798,973.0,13.0,-192.0
438.922,898.0,-2.0,-344.0
439.046,712.0,0.0,-588.0
439.17,386.0,14.0,-805.0
439.294,68.0,20.0,-972.0
439.557,-121.0,-9.0,-1036.0
440.102,25.0,-57.0,-1050.0
440.226,192.0,-66.0,-1006.0
440.35,441.0,-65.0,-882.0
440.474,700.0,-42.0,-637.0
440.598,882.0,-32.0,-412.0
440.861,945.0,-38.0,-337.0
440.986,820.0,-42.0,-500.0
441.109,608.0,-62.0,-710.0
441.233,306.0,-98.0,-868.0
441.358,26.0,-137.0,-974.0
441.621,-133.0,-174.0,-1066.0
442.166,2.0,-120.0,-1010.0
442.29,162.0,-117.0,-966.0
442.414,410.0,-97.0,-837.0
442.539,696.0,-61.0,-610.0
442.662,877.0,-26.0,-393.0
442.929,934.0,2.0,-346.0
443.054,829.0,-13.0,-505.0
443.177,616.0,-29.0,-716.0
443.301,306.0,-57.0,-888.0
443.426,32.0,-68.0,-997.0
444.249,-52.0,-49.0,-1040.0
444.373,65.0,-32.0,-1026.0
444.498,254.0,-24.0,-974.0
444.622,510.0,-17.0,-818.0
444.746,722.0,0.0,-585.0
444.87,885.0,17.0,-350.0
445.134,914.0,40.0,-330.0
445.257,792.0,12.0,-530.0
445.382,558.0,5.0,-756.0
445.506,256.0,-24.0,-916.0
445.63,18.0,-22.0,-1004.0
446.173,-53.0,-56.0,-1012.0
446.298,90.0,-65.0,-985.0
446.422,316.0,-54.0,-890.0
446.545,588.0,-58.0,-724.0
446.669,822.0,-32.0,-486.0
446.793,968.0,-8.0,-281.0
446.917,988.0,10.0,-217.0
447.046,909.0,8.0,-334.0
447.169,730.0,0.0,-581.0
447.293,460.0,-16.0,-894.0
447.417,168.0,-26.0,-1038.0
447.541,-21.0,-46.0,-1096.0
448.226,28.0,33.0,-1018.0
448.35,222.0,37.0,-956.0
448.473,510.0,26.0,-778.0
448.597,757.0,34.0,-566.0
448.722,908.0,38.0,-365.0
448.985,880.0,28.0,-392.0
449.11,720.0,40.0,-636.0
449.238,410.0,37.0,-865.0
449.361,74.0,60.0,-977.0
449.486,-124.0,26.0,-1004.0
449.889,-102.0,9.0,-1025.0
450.013,-1.0,9.0,-1012.0
450.137,196.0,-9.0,-961.0
450.261,454.0,-18.0,-840.0
450.386,721.0,-6.0,-661.0
450.51,874.0,12.0,-492.0
450.633,940.0,24.0,-385.0
450.897,825.0,45.0,-445.0
451.021,665.0,61.0,-664.0
451.149,366.0,64.0,-862.0
451.273,112.0,57.0,-1010.0
451.397,-85.0,52.0,-1028.0
451.941,-13.0,58.0,-996.0
452.065,192.0,88.0,-929.0
452.19,493.0,112.0,-804.0
452.313,712.0,100.0,-658.0
452.437,844.0,84.0,-522.0
452.702,884.0,64.0,-432.0
452.825,817.0,61.0,-564.0
452.95,634.0,80.0,-725.0
453.073,362.0,92.0,-902.0
453.197,60.0,76.0,-978.0
453.322,-104.0,20.0,-1022.0
453.446,-136.0,-58.0,-1029.0
453.85,-44.0,-68.0,-1032.0
453.974,154.0,-68.0,-978.0
454.097,429.0,-42.0,-861.0
454.221,674.0,9.0,-660.0
454.346,845.0,45.0,-453.0
454.614,888.0,18.0,-417.0
454.733,736.0,5.0,-598.0
454.857,490.0,10.0,-804.0
454.982,209.0,24.0,-938.0
455.106,34.0,29.0,-1017.0
455.774,45.0,2.0,-1049.0
455.897,234.0,-36.0,-980.0
456.021,490.0,-40.0,-810.0
456.146,741.0,-13.0,-537.0
456.269,884.0,32.0,-313.0
456.533,922.0,20.0,-252.0
456.657,861.0,-4.0,-417.0
456.781,713.0,-30.0,-612.0
456.906,477.0,-38.0,-813.0
457.029,208.0,-56.0,-952.0
457.154,16.0,-68.0,-1020.0
457.697,-58.0,-77.0,-1014.0
457.822,-34.0,-38.0,-1013.0
457.945,49.0,37.0,-1058.0
458.069,222.0,74.0,-1008.0
458.193,454.0,89.0,-880.0
458.317,708.0,74.0,-648.0
458.441,842.0,66.0,-496.0
458.565,886.0,74.0,-474.0
458.69,805.0,50.0,-572.0
458.813,678.0,24.0,-714.0
458.937,446.0,-9.0,-848.0
459.061,148.0,-13.0,-953.0
459.729,-54.0,-25.0,-1037.0
459.853,22.0,-52.0,-1024.0
459.977,184.0,-45.0,-973.0
460.101,432.0,-58.0,-868.0
460.225,666.0,-36.0,-702.0
460.351,822.0,-21.0,-534.0
460.473,880.0,10.0,-426.0
460.737,848.0,-1.0,-488.0
460.861,718.0,-33.0,-642.0
460.985,493.0,-44.0,-821.0
461.109,262.0,-33.0,-934.0
461.233,105.0,-36.0,-1008.0
461.777,17.0,-46.0,-997.0
461.901,161.0,-16.0,-985.0
462.302,400.0,8.0,-889.0
462.304,665.0,45.0,-741.0
462.304,838.0,54.0,-510.0
462.397,921.0,62.0,-354.0
462.521,953.0,61.0,-313.0
462.645,914.0,70.0,-412.0
462.769,773.0,70.0,-590.0
462.894,556.0,34.0,-786.0
463.017,248.0,-10.0,-918.0
463.142,36.0,-49.0,-1004.0
463.949,21.0,-16.0,-1000.0
464.073,237.0,-21.0,-922.0
464.197,566.0,-30.0,-765.0
464.322,788.0,18.0,-572.0
464.445,902.0,41.0,-410.0
464.569,913.0,48.0,-362.0
464.693,872.0,4.0,-453.0
464.817,741.0,-18.0,-629.0
464.941,512.0,-21.0,-796.0
465.065,189.0,-14.0,-933.0
465.189,-20.0,-33.0,-998.0
465.873,5.0,17.0,-1038.0
465.997,160.0,64.0,-1021.0
466.121,388.0,104.0,-926.0
466.245,632.0,98.0,-753.0
466.369,805.0,86.0,-540.0
466.493,901.0,73.0,-382.0
466.618,910.0,74.0,-349.0
466.741,870.0,80.0,-432.0
466.865,762.0,77.0,-604.0
466.989,602.0,64.0,-765.0
467.114,366.0,37.0,-960.0
467.237,162.0,13.0,-1032.0
467.361,26.0,12.0,-1073.0
467.765,-60.0,-2.0,-1024.0
468.013,-41.0,-49.0,-1029.0
468.137,77.0,-77.0,-1012.0
468.265,300.0,-70.0,-914.0
468.389,574.0,-41.0,-758.0
468.513,780.0,18.0,-565.0
468.637,890.0,46.0,-428.0
468.901,842.0,53.0,-440.0
469.025,705.0,38.0,-616.0
469.149,482.0,33.0,-809.0
469.273,238.0,21.0,-946.0
469.397,8.0,32.0,-1013.0
469.941,-66.0,-5.0,-1034.0
470.065,32.0,-20.0,-1018.0
470.189,229.0,-38.0,-982.0
470.313,454.0,-36.0,-888.0
470.437,653.0,-32.0,-733.0
470.561,786.0,-17.0,-552.0
470.685,882.0,6.0,-396.0
470.809,928.0,29.0,-354.0
470.933,886.0,30.0,-433.0
471.058,740.0,6.0,-588.0
471.181,514.0,-17.0,-802.0
471.305,282.0,-5.0,-930.0
471.433,90.0,21.0,-1020.0
471.558,-14.0,36.0,-1022.0
472.365,116.0,-48.0,-1006.0
472.489,344.0,-65.0,-900.0
472.613,650.0,-53.0,-685.0
472.737,833.0,-8.0,-440.0
473.001,930.0,34.0,-286.0
473.125,874.0,26.0,-429.0
473.249,722.0,1.0,-630.0
473.373,504.0,0.0,-814.0
473.497,244.0,-20.0,-942.0
473.621,40.0,-25.0,-1012.0
474.305,-30.0,-72.0,-1017.0
474.429,90.0,-81.0,-992.0
474.553,301.0,-96.0,-921.0
474.678,548.0,-90.0,-784.0
474.801,744.0,-65.0,-572.0
474.926,900.0,-4.0,-326.0
475.049,969.0,40.0,-160.0
475.173,994.0,65.0,-152.0
475.297,910.0,65.0,-302.0
475.421,746.0,44.0,-556.0
475.545,466.0,10.0,-797.0
475.669,130.0,-14.0,-977.0
476.617,32.0,24.0,-1020.0
476.741,237.0,50.0,-964.0
476.865,534.0,69.0,-788.0
476.989,782.0,81.0,-522.0
477.113,920.0,57.0,-270.0
477.377,934.0,37.0,-261.0
477.501,828.0,48.0,-470.0
477.625,589.0,53.0,-722.0
477.749,301.0,49.0,-904.0
477.873,76.0,33.0,-1012.0
477.997,-24.0,9.0,-1036.0
478.541,-9.0,-46.0,-1022.0
478.665,84.0,-70.0,-1037.0
478.789,277.0,-54.0,-984.0
478.913,522.0,-20.0,-842.0
479.037,748.0,45.0,-592.0
479.161,886.0,78.0,-352.0
479.426,940.0,70.0,-285.0
479.55,834.0,46.0,-465.0
479.673,636.0,52.0,-677.0
479.797,377.0,34.0,-864.0
479.921,157.0,32.0,-989.0
480.045,26.0,17.0,-1038.0
480.169,-36.0,30.0,-1044.0
480.576,-70.0,22.0,-990.0
480.701,30.0,17.0,-985.0
480.825,237.0,-6.0,-904.0
480.949,522.0,8.0,-774.0
481.074,761.0,20.0,-529.0
481.197,892.0,56.0,-337.0
481.369,932.0,65.0,-261.0
481.445,897.0,57.0,-349.0
481.569,812.0,46.0,-529.0
481.693,609.0,45.0,-716.0
481.817,336.0,29.0,-893.0
481.941,105.0,5.0,-990.0
482.065,-49.0,-14.0,-1036.0
482.609,-4.0,-61.0,-1021.0
482.733,126.0,-50.0,-1013.0
482.857,334.0,-48.0,-914.0
482.981,593.0,-20.0,-736.0
483.105,810.0,-14.0,-506.0
483.229,932.0,-8.0,-364.0
483.353,909.0,-21.0,-388.0
483.477,810.0,-21.0,-524.0
483.601,618.0,12.0,-714.0
483.725,386.0,26.0,-820.0
483.849,78.0,18.0,-928.0
483.973,-62.0,-22.0,-977.0
484.097,-109.0,-30.0,-1037.0
484.628,8.0,-25.0,-1026.0
484.753,132.0,-40.0,-1002.0
484.877,337.0,-46.0,-920.0
485.002,580.0,-21.0,-765.0
485.125,784.0,40.0,-529.0
485.249,908.0,78.0,-352.0
485.513,921.0,69.0,-374.0
485.637,781.0,34.0,-550.0
485.761,529.0,-13.0,-756.0
485.885,225.0,-62.0,-924.0
486.709,130.0,-4.0,-974.0
486.833,366.0,-8.0,-878.0
486.957,630.0,-9.0,-692.0
487.081,834.0,18.0,-477.0
487.205,932.0,49.0,-278.0
487.329,958.0,57.0,-236.0
487.453,904.0,45.0,-366.0
487.577,734.0,49.0,-608.0
487.701,501.0,42.0,-812.0
487.825,193.0,18.0,-961.0
487.949,13.0,-26.0,-1001.0
488.633,-77.0,8.0,-1024.0
488.757,6.0,44.0,-1056.0
488.884,184.0,70.0,-1021.0
489.009,416.0,73.0,-930.0
489.134,654.0,80.0,-705.0
489.257,849.0,101.0,-477.0
489.381,932.0,129.0,-304.0
489.505,954.0,136.0,-258.0
489.629,893.0,117.0,-345.0
489.753,774.0,72.0,-526.0
489.877,541.0,26.0,-773.0
490.001,196.0,13.0,-945.0
490.125,-16.0,-24.0,-1044.0
490.809,-12.0,-40.0,-1013.0
490.933,169.0,-22.0,-981.0
491.057,442.0,10.0,-872.0
491.181,686.0,60.0,-649.0
491.305,894.0,88.0,-358.0
491.429,964.0,113.0,-136.0
491.553,1008.0,100.0,-76.0
491.677,938.0,101.0,-202.0
491.801,836.0,105.0,-449.0
491.925,596.0,109.0,-706.0
492.049,305.0,124.0,-914.0
492.173,86.0,101.0,-997.0
492.857,49.0,25.0,-1018.0
492.981,244.0,42.0,-972.0
493.109,513.0,76.0,-814.0
493.233,740.0,104.0,-606.0
493.357,876.0,112.0,-384.0
493.482,929.0,104.0,-269.0
493.605,933.0,93.0,-286.0
493.729,874.0,77.0,-433.0
493.853,717.0,69.0,-633.0
493.977,478.0,41.0,-805.0
494.101,176.0,17.0,-932.0
494.225,-30.0,-28.0,-1010.0
494.349,-129.0,-58.0,-1041.0
494.613,-98.0,-78.0,-1033.0
494.737,-92.0,-84.0,-1029.0
494.861,-6.0,-49.0,-1021.0
494.985,132.0,-85.0,-980.0
495.109,353.0,-76.0,-888.0
495.233,561.0,-116.0,-732.0
495.357,784.0,-86.0,-553.0
495.482,893.0,-81.0,-425.0
495.605,909.0,-73.0,-420.0
495.729,809.0,-118.0,-549.0
495.853,613.0,-144.0,-792.0
495.977,369.0,-144.0,-966.0
496.101,125.0,-98.0,-1044.0
496.225,-22.0,-74.0,-1025.0
496.769,-65.0,29.0,-1018.0
496.893,-46.0,50.0,-1042.0
497.021,62.0,73.0,-1014.0
497.145,282.0,85.0,-945.0
497.269,585.0,96.0,-733.0
497.393,834.0,89.0,-496.0
497.517,940.0,76.0,-314.0
497.641,944.0,66.0,-320.0
497.765,829.0,89.0,-472.0
497.889,642.0,96.0,-694.0
498.013,389.0,96.0,-885.0
498.137,134.0,45.0,-976.0
498.261,-30.0,-2.0,-1010.0
498.385,-105.0,-58.0,-1006.0
498.929,-26.0,-49.0,-1008.0
499.053,101.0,-42.0,-996.0
499.177,300.0,-56.0,-902.0
499.301,581.0,-30.0,-693.0
499.425,825.0,20.0,-402.0
499.549,960.0,62.0,-213.0
499.673,981.0,58.0,-158.0
499.937,950.0,12.0,-285.0
500.061,845.0,10.0,-458.0
500.185,628.0,8.0,-690.0
500.309,318.0,-9.0,-877.0
500.433,65.0,-40.0,-981.0
501.241,-33.0,-25.0,-1036.0
501.365,65.0,-9.0,-1017.0
501.489,260.0,-5.0,-953.0
501.613,478.0,12.0,-825.0
501.737,689.0,0.0,-674.0
501.861,788.0,4.0,-580.0
501.985,813.0,-12.0,-562.0
502.109,758.0,-1.0,-632.0
502.233,645.0,-13.0,-741.0
502.357,472.0,-45.0,-873.0
502.481,282.0,-70.0,-958.0
502.605,104.0,-86.0,-1022.0
502.729,-5.0,-73.0,-1028.0
503.413,-9.0,-66.0,-1000.0
503.537,116.0,-66.0,-972.0
503.661,310.0,-76.0,-918.0
503.785,480.0,-56.0,-860.0
503.909,604.0,-36.0,-797.0
504.313,602.0,-25.0,-794.0
504.437,497.0,-26.0,-873.0
504.561,364.0,-49.0,-942.0
504.685,208.0,-56.0,-981.0
504.812,61.0,-62.0,-1026.0
504.933,-54.0,-38.0,-1045.0
505.741,-21.0,13.0,-1024.0
505.865,89.0,9.0,-1012.0
505.989,242.0,9.0,-953.0
506.113,414.0,20.0,-881.0
506.237,576.0,42.0,-781.0
506.361,686.0,45.0,-736.0
506.485,688.0,33.0,-744.0
506.609,566.0,4.0,-817.0
506.733,356.0,-14.0,-908.0
506.857,137.0,-52.0,-1012.0
506.981,-13.0,-66.0,-1041.0
507.805,-34.0,-53.0,-1008.0
507.929,66.0,-73.0,-1002.0
508.053,232.0,-80.0,-953.0
508.177,444.0,-58.0,-862.0
508.301,636.0,-10.0,-720.0
508.425,773.0,20.0,-593.0
508.689,804.0,20.0,-554.0
508.813,710.0,8.0,-658.0
508.937,554.0,-29.0,-796.0
509.061,349.0,-46.0,-905.0
509.185,136.0,-61.0,-981.0
509.309,-10.0,-58.0,-1013.0
510.117,-12.0,-54.0,-1016.0
510.241,124.0,-60.0,-982.0
510.365,329.0,-52.0,-886.0
510.489,589.0,-42.0,-742.0
510.613,765.0,-20.0,-588.0
510.877,842.0,-16.0,-529.0
511.001,778.0,-4.0,-608.0
511.125,666.0,12.0,-716.0
511.249,482.0,26.0,-838.0
511.373,258.0,4.0,-946.0
511.497,88.0,-14.0,-992.0
512.461,44.0,-30.0,-1025.0
512.585,148.0,-29.0,-997.0
512.709,328.0,-18.0,-928.0
512.833,546.0,-13.0,-780.0
512.957,746.0,-8.0,-585.0
513.081,874.0,-4.0,-382.0
513.205,942.0,-10.0,-206.0
513.329,958.0,-21.0,-68.0
514.297,990.0,-29.0,-9.0
514.421,949.0,-5.0,-168.0
514.545,789.0,12.0,-450.0
514.669,560.0,2.0,-736.0
514.793,285.0,-6.0,-984.0
514.917,73.0,-10.0,-1061.0
515.041,-64.0,1.0,-1074.0
516.145,-22.0,-24.0,-1022.0
516.269,109.0,-37.0,-989.0
516.393,332.0,-56.0,-900.0
516.517,594.0,-57.0,-716.0
516.641,809.0,-49.0,-473.0
516.765,930.0,-44.0,-245.0
516.889,965.0,-48.0,-117.0
517.153,946.0,-38.0,-146.0
517.277,892.0,-32.0,-304.0
517.401,757.0,-29.0,-562.0
517.525,513.0,-56.0,-780.0
517.649,262.0,-53.0,-934.0
517.773,77.0,-42.0,-1006.0
518.738,-38.0,-65.0,-1028.0
518.845,37.0,-50.0,-1005.0
518.969,237.0,-50.0,-938.0
519.093,497.0,-25.0,-768.0
519.217,749.0,-20.0,-516.0
519.341,898.0,-14.0,-269.0
519.605,984.0,-57.0,-120.0
519.729,952.0,-62.0,-237.0
519.853,804.0,-81.0,-472.0
519.977,570.0,-76.0,-737.0
520.101,268.0,-62.0,-924.0
520.225,73.0,-36.0,-1005.0
521.049,-76.0,-22.0,-1024.0
521.173,-5.0,-33.0,-1062.0
521.297,166.0,-45.0,-1020.0
521.421,393.0,-44.0,-892.0
521.545,652.0,-18.0,-629.0
521.669,850.0,22.0,-333.0
521.793,960.0,33.0,-106.0
522.057,992.0,-17.0,-53.0
522.181,970.0,-29.0,-189.0
522.304,870.0,-32.0,-382.0
522.429,686.0,-41.0,-625.0
522.552,449.0,-40.0,-840.0
522.677,180.0,-46.0,-994.0
522.804,8.0,-32.0,-1058.0
523.488,81.0,12.0,-1044.0
523.613,278.0,-18.0,-973.0
523.737,540.0,-20.0,-822.0
523.861,753.0,-32.0,-566.0
523.984,885.0,-32.0,-349.0
524.109,945.0,-41.0,-214.0
524.373,952.0,-53.0,-230.0
524.497,905.0,-40.0,-364.0
524.621,773.0,-13.0,-564.0
524.745,490.0,12.0,-770.0
524.869,165.0,37.0,-925.0
525.552,-26.0,12.0,-1028.0
525.676,114.0,-13.0,-993.0
525.801,353.0,-29.0,-897.0
525.924,608.0,-33.0,-721.0
526.048,860.0,-24.0,-465.0
526.172,957.0,8.0,-229.0
526.296,994.0,25.0,-129.0
526.421,941.0,32.0,-233.0
526.544,849.0,6.0,-482.0
526.669,657.0,-21.0,-744.0
526.793,394.0,-52.0,-925.0
526.917,141.0,-69.0,-1006.0
527.044,-37.0,-76.0,-1020.0
527.992,-17.0,-44.0,-994.0
528.116,214.0,-44.0,-928.0
528.24,508.0,-38.0,-780.0
528.364,754.0,-48.0,-556.0
528.488,900.0,-54.0,-341.0
528.753,954.0,-52.0,-286.0
528.877,840.0,-34.0,-438.0
529.001,642.0,-34.0,-676.0
529.124,358.0,-53.0,-854.0
529.248,161.0,-90.0,-977.0
529.372,21.0,-121.0,-997.0
529.497,-14.0,-138.0,-1029.0
529.621,-54.0,-128.0,-1025.0
529.744,-102.0,-94.0,-1028.0
529.869,-140.0,-81.0,-997.0
530.133,-114.0,-49.0,-1014.0
530.256,54.0,-14.0,-954.0
530.381,284.0,12.0,-882.0
530.504,524.0,6.0,-797.0
530.628,690.0,-25.0,-706.0
530.752,809.0,-42.0,-593.0
530.877,842.0,-68.0,-498.0
531.404,737.0,-100.0,-608.0
531.528,597.0,-154.0,-753.0
531.652,372.0,-185.0,-900.0
531.776,200.0,-180.0,-956.0
531.901,58.0,-158.0,-998.0
532.164,-48.0,-142.0,-1022.0
532.568,-65.0,-101.0,-1044.0
532.693,56.0,-66.0,-1024.0
532.816,270.0,-40.0,-977.0
532.941,461.0,-18.0,-872.0
533.064,613.0,-10.0,-786.0
533.188,685.0,4.0,-694.0
533.592,746.0,-49.0,-632.0
533.717,660.0,-76.0,-708.0
533.841,468.0,-137.0,-857.0
533.965,194.0,-154.0,-965.0
534.088,-58.0,-152.0,-1038.0
534.212,-168.0,-136.0,-1045.0
534.336,-169.0,-145.0,-1036.0
534.88,22.0,-37.0,-1046.0
535.004,232.0,-2.0,-997.0
535.129,508.0,14.0,-852.0
535.253,706.0,1.0,-637.0
535.379,798.0,13.0,-494.0
535.504,860.0,16.0,-424.0
535.628,893.0,21.0,-378.0
535.892,888.0,8.0,-406.0
536.016,822.0,4.0,-536.0
536.14,697.0,5.0,-693.0
536.264,533.0,29.0,-828.0
536.388,321.0,86.0,-929.0
536.513,170.0,118.0,-1001.0
537.336,152.0,84.0,-1004.0
537.46,337.0,58.0,-928.0
537.584,572.0,29.0,-813.0
537.709,737.0,-8.0,-648.0
537.832,825.0,-13.0,-502.0
538.36,802.0,-44.0,-554.0
538.484,557.0,-38.0,-774.0
538.608,340.0,-17.0,-946.0
538.732,185.0,-53.0,-1028.0
538.856,116.0,-56.0,-1022.0
538.981,32.0,-96.0,-1045.0
539.384,-6.0,-22.0,-1001.0
539.508,181.0,-5.0,-986.0
539.633,421.0,12.0,-956.0
539.76,645.0,0.0,-852.0
539.884,748.0,10.0,-720.0
540.008,792.0,1.0,-594.0
540.272,782.0,-56.0,-597.0
540.396,642.0,-90.0,-721.0
540.521,424.0,-122.0,-862.0
540.644,154.0,-86.0,-982.0
540.768,-56.0,-53.0,-1020.0
541.032,-156.0,-44.0,-1014.0
541.296,-89.0,-66.0,-1033.0
541.42,-64.0,-52.0,-1029.0
541.544,45.0,2.0,-1028.0
541.668,202.0,-9.0,-966.0
541.792,424.0,-2.0,-865.0
541.916,628.0,-13.0,-702.0
542.04,789.0,10.0,-585.0
542.164,829.0,36.0,-534.0
542.288,777.0,44.0,-625.0
542.412,632.0,45.0,-760.0
542.536,434.0,20.0,-905.0
542.66,200.0,-6.0,-974.0
542.784,13.0,-30.0,-1012.0
543.468,-12.0,-113.0,-1038.0
543.592,120.0,-130.0,-1009.0
543.716,326.0,-150.0,-933.0
543.844,577.0,-117.0,-772.0
543.968,762.0,-78.0,-588.0
544.092,870.0,-36.0,-452.0
544.217,876.0,-24.0,-412.0
544.341,848.0,-38.0,-493.0
544.464,742.0,-41.0,-632.0
544.588,580.0,-81.0,-789.0
544.713,362.0,-116.0,-901.0
544.836,181.0,-173.0,-969.0
544.96,62.0,-188.0,-986.0
545.084,-8.0,-201.0,-997.0
545.209,-60.0,-202.0,-997.0
545.332,-110.0,-189.0,-997.0
545.72,-129.0,-153.0,-1004.0
545.844,-22.0,-134.0,-996.0
545.968,189.0,-113.0,-941.0
546.092,472.0,-82.0,-818.0
546.217,714.0,-73.0,-648.0
546.341,849.0,-46.0,-509.0
546.464,873.0,-50.0,-465.0
546.588,816.0,-68.0,-541.0
546.712,676.0,-94.0,-693.0
546.836,438.0,-117.0,-852.0
546.961,184.0,-126.0,-916.0
547.084,-18.0,-124.0,-980.0
547.348,-124.0,-66.0,-1040.0
547.473,-38.0,-46.0,-1024.0
547.596,102.0,-9.0,-1022.0
547.724,320.0,-29.0,-950.0
547.849,520.0,-50.0,-844.0
547.973,672.0,-77.0,-682.0
548.097,788.0,-96.0,-556.0
548.361,846.0,-109.0,-486.0
548.485,773.0,-117.0,-577.0
548.609,561.0,-138.0,-758.0
548.732,345.0,-136.0,-912.0
548.856,142.0,-106.0,-1010.0
548.98,73.0,-62.0,-1020.0
549.384,4.0,-33.0,-1044.0
549.508,8.0,-33.0,-1025.0
549.632,128.0,-40.0,-1017.0
549.756,305.0,-66.0,-920.0
549.88,542.0,-82.0,-810.0
550.004,716.0,-70.0,-646.0
550.129,822.0,-60.0,-552.0
550.252,850.0,-37.0,-533.0
550.376,786.0,-54.0,-597.0
550.501,670.0,-77.0,-728.0
550.624,470.0,-102.0,-856.0
550.749,236.0,-126.0,-954.0
550.872,40.0,-144.0,-1002.0
550.996,-88.0,-128.0,-1014.0
551.823,62.0,-28.0,-1004.0
551.948,269.0,-49.0,-908.0
552.072,566.0,-53.0,-753.0
552.196,782.0,-30.0,-549.0
552.46,865.0,-12.0,-498.0
552.585,737.0,-53.0,-689.0
552.708,518.0,-80.0,-842.0
552.832,266.0,-114.0,-958.0
552.956,65.0,-134.0,-988.0
553.08,-52.0,-157.0,-1000.0
553.484,-70.0,-129.0,-1028.0
553.608,-66.0,-96.0,-1024.0
553.732,-56.0,-38.0,-1018.0
553.856,25.0,30.0,-990.0
553.98,220.0,77.0,-932.0
554.104,502.0,124.0,-781.0
554.228,772.0,100.0,-558.0
554.352,914.0,86.0,-386.0
554.476,929.0,73.0,-380.0
554.601,785.0,54.0,-550.0
554.724,553.0,24.0,-784.0
554.848,229.0,-17.0,-936.0
554.972,-29.0,-29.0,-1000.0
555.236,-181.0,-62.0,-1012.0
555.36,-133.0,-62.0,-1013.0
555.484,-97.0,-25.0,-1022.0
555.871,14.0,56.0,-1045.0
555.996,193.0,102.0,-990.0
556.12,466.0,133.0,-844.0
556.245,745.0,141.0,-560.0
556.368,940.0,132.0,-333.0
556.492,972.0,128.0,-248.0
556.616,872.0,156.0,-394.0
556.74,650.0,112.0,-633.0
556.864,392.0,76.0,-848.0
556.988,128.0,20.0,-954.0
557.112,-46.0,-6.0,-1005.0
557.656,-90.0,-69.0,-1014.0
557.78,-62.0,-76.0,-1008.0
557.904,17.0,-76.0,-990.0
558.028,190.0,-78.0,-953.0
558.153,454.0,-69.0,-826.0
558.276,717.0,-40.0,-606.0
558.4,881.0,6.0,-373.0
558.524,932.0,32.0,-285.0
558.648,908.0,14.0,-362.0
558.772,765.0,-9.0,-564.0
558.896,564.0,-53.0,-758.0
559.02,296.0,-85.0,-912.0
559.144,77.0,-93.0,-985.0
559.268,-73.0,-94.0,-1016.0
559.955,-16.0,-109.0,-1005.0
560.08,196.0,-112.0,-941.0
560.204,497.0,-72.0,-813.0
560.328,765.0,-16.0,-624.0
560.452,886.0,50.0,-457.0
560.576,909.0,68.0,-393.0
560.7,869.0,76.0,-458.0
560.824,762.0,62.0,-612.0
560.948,562.0,42.0,-777.0
561.072,308.0,16.0,-914.0
561.196,70.0,1.0,-986.0
562.021,-37.0,-34.0,-1037.0
562.144,106.0,-10.0,-994.0
562.268,358.0,17.0,-908.0
562.392,609.0,49.0,-742.0
562.516,793.0,54.0,-590.0
562.78,793.0,54.0,-580.0
562.904,612.0,52.0,-740.0
563.028,330.0,12.0,-896.0
563.153,96.0,-48.0,-986.0
563.276,-54.0,-92.0,-1004.0
564.24,41.0,13.0,-1025.0
564.368,229.0,33.0,-964.0
564.492,501.0,48.0,-825.0
564.616,736.0,57.0,-652.0
564.74,848.0,72.0,-533.0
564.864,833.0,65.0,-521.0
564.988,732.0,60.0,-642.0
565.112,569.0,32.0,-784.0
565.236,369.0,1.0,-908.0
565.36,162.0,-50.0,-982.0
565.484,36.0,-73.0,-1021.0
565.888,-53.0,-90.0,-996.0
566.012,-46.0,-69.0,-997.0
566.276,74.0,-24.0,-1021.0
566.4,228.0,14.0,-986.0
566.524,436.0,20.0,-901.0
566.648,633.0,34.0,-729.0
566.772,798.0,33.0,-536.0
567.036,876.0,64.0,-454.0
567.16,766.0,66.0,-592.0
567.284,616.0,74.0,-774.0
567.408,400.0,76.0,-893.0
567.532,224.0,73.0,-972.0
567.656,52.0,84.0,-969.0
567.78,-16.0,80.0,-992.0
567.904,-50.0,54.0,-1006.0
568.572,118.0,-21.0,-1005.0
568.696,326.0,-16.0,-944.0
568.82,580.0,2.0,-757.0
568.944,849.0,29.0,-489.0
569.068,937.0,37.0,-328.0
569.192,973.0,38.0,-332.0
569.316,833.0,37.0,-505.0
569.441,681.0,30.0,-689.0
569.564,422.0,13.0,-854.0
569.688,173.0,-2.0,-980.0
569.812,4.0,-22.0,-1025.0
570.636,0.0,-20.0,-1021.0
570.76,221.0,-9.0,-948.0
570.884,532.0,25.0,-777.0
571.009,753.0,58.0,-574.0
571.272,860.0,72.0,-473.0
571.396,769.0,72.0,-597.0
571.52,592.0,61.0,-757.0
571.644,372.0,50.0,-897.0
571.768,156.0,42.0,-989.0
571.892,20.0,36.0,-1026.0
572.716,-13.0,41.0,-1004.0
572.844,141.0,16.0,-960.0
572.968,384.0,6.0,-880.0
573.092,630.0,8.0,-714.0
573.216,816.0,20.0,-524.0
573.481,888.0,-16.0,-425.0
573.604,746.0,-37.0,-588.0
573.728,525.0,-72.0,-808.0
573.852,242.0,-117.0,-941.0
573.976,25.0,-130.0,-1000.0
574.66,22.0,-106.0,-1016.0
574.784,174.0,-93.0,-965.0
574.908,420.0,-77.0,-834.0
575.032,689.0,-73.0,-656.0
575.156,856.0,-50.0,-453.0
575.42,909.0,-41.0,-386.0
575.544,821.0,-50.0,-481.0
575.668,670.0,-60.0,-661.0
575.792,444.0,-74.0,-824.0
575.916,222.0,-89.0,-961.0
576.04,32.0,-82.0,-1008.0
576.164,-64.0,-70.0,-1009.0
576.848,41.0,-56.0,-1017.0
576.972,250.0,-70.0,-966.0
577.1,486.0,-82.0,-848.0
577.224,682.0,-76.0,-680.0
577.348,814.0,-62.0,-537.0
577.612,876.0,-86.0,-506.0
577.736,746.0,-86.0,-638.0
577.86,526.0,-64.0,-816.0
577.984,257.0,-40.0,-940.0
578.108,78.0,-49.0,-1005.0
578.652,-8.0,-20.0,-1029.0
578.776,84.0,-5.0,-1017.0
578.9,192.0,12.0,-1002.0
579.024,332.0,9.0,-940.0
579.148,500.0,-21.0,-824.0
579.272,700.0,-40.0,-662.0
579.396,853.0,-53.0,-500.0
579.66,840.0,-92.0,-490.0
579.784,733.0,-72.0,-644.0
579.908,537.0,-97.0,-797.0
580.032,326.0,-66.0,-893.0
580.156,58.0,-101.0,-954.0
580.84,-68.0,-120.0,-1014.0
580.964,17.0,-137.0,-994.0
581.088,206.0,-146.0,-933.0
581.215,474.0,-152.0,-804.0
581.34,724.0,-117.0,-605.0
581.464,900.0,-58.0,-389.0
581.728,912.0,-44.0,-364.0
581.852,748.0,-74.0,-568.0
581.976,508.0,-109.0,-794.0
582.1,254.0,-109.0,-933.0
582.224,44.0,-101.0,-1000.0
582.348,-76.0,-93.0,-1020.0
583.032,-13.0,-13.0,-1002.0
583.156,197.0,-18.0,-924.0
583.28,488.0,-16.0,-788.0
583.404,758.0,-20.0,-596.0
583.528,897.0,-1.0,-428.0
583.652,946.0,-10.0,-313.0
583.776,933.0,-14.0,-322.0
583.9,885.0,-29.0,-410.0
584.024,797.0,-26.0,-560.0
584.148,653.0,-26.0,-728.0
584.272,442.0,-29.0,-866.0
584.396,198.0,-33.0,-962.0
584.521,10.0,-29.0,-1000.0
585.204,-38.0,-34.0,-1020.0
585.328,65.0,-29.0,-1009.0
585.456,282.0,-28.0,-925.0
585.58,569.0,-17.0,-757.0
585.704,828.0,-32.0,-462.0
585.828,961.0,-34.0,-222.0
585.952,996.0,-44.0,-129.0
586.076,940.0,-30.0,-244.0
586.2,809.0,-45.0,-488.0
586.324,549.0,-64.0,-741.0
586.448,258.0,-94.0,-916.0
586.572,29.0,-116.0,-993.0
586.696,-96.0,-124.0,-1010.0
587.66,88.0,37.0,-957.0
587.785,388.0,28.0,-828.0
587.908,733.0,24.0,-538.0
588.047,928.0,22.0,-294.0
588.156,977.0,33.0,-158.0
588.28,954.0,37.0,-246.0
588.404,857.0,26.0,-465.0
588.528,648.0,1.0,-705.0
588.652,334.0,-26.0,-877.0
588.776,48.0,-50.0,-962.0
588.9,-114.0,-73.0,-996.0
589.444,-92.0,-62.0,-1008.0
589.571,49.0,-50.0,-982.0
589.696,338.0,-44.0,-862.0
589.82,669.0,-25.0,-668.0
589.944,912.0,2.0,-396.0
590.068,1000.0,40.0,-222.0
590.192,978.0,38.0,-206.0
590.315,872.0,28.0,-408.0
590.44,656.0,22.0,-650.0
590.564,384.0,14.0,-874.0
590.688,117.0,2.0,-953.0
590.812,-65.0,-4.0,-1004.0
591.495,-144.0,16.0,-1038.0
591.62,20.0,1.0,-980.0
591.744,308.0,0.0,-837.0
591.869,689.0,-26.0,-574.0
591.992,918.0,10.0,-301.0
592.256,940.0,53.0,-230.0
592.38,753.0,17.0,-506.0
592.503,496.0,-21.0,-792.0
592.627,193.0,-58.0,-948.0
592.751,-10.0,-60.0,-998.0
593.435,-24.0,1.0,-1010.0
593.559,158.0,34.0,-961.0
593.683,468.0,66.0,-825.0
593.81,746.0,114.0,-606.0
593.936,901.0,138.0,-424.0
594.059,888.0,157.0,-382.0
594.183,828.0,137.0,-514.0
594.308,634.0,112.0,-736.0
594.431,393.0,74.0,-892.0
594.556,97.0,34.0,-981.0
594.68,-53.0,1.0,-985.0
595.374,114.0,-61.0,-988.0
595.488,377.0,-56.0,-861.0
595.612,701.0,-37.0,-665.0
595.736,905.0,4.0,-445.0
595.999,917.0,41.0,-422.0
596.124,778.0,30.0,-616.0
596.248,537.0,4.0,-809.0
596.372,242.0,-6.0,-932.0
596.496,21.0,-6.0,-1002.0
597.04,-20.0,49.0,-1012.0
597.163,192.0,76.0,-932.0
597.288,526.0,133.0,-722.0
597.412,836.0,161.0,-389.0
597.536,966.0,185.0,-128.0
597.66,990.0,161.0,-70.0
597.857,944.0,157.0,-236.0
597.908,804.0,109.0,-492.0
598.036,516.0,46.0,-770.0
598.16,160.0,-9.0,-934.0
598.284,-89.0,-29.0,-1024.0
598.547,-162.0,18.0,-1029.0
598.671,-110.0,25.0,-1021.0
598.92,-45.0,29.0,-1016.0
599.044,68.0,30.0,-1000.0
599.168,318.0,-2.0,-916.0
599.291,628.0,-26.0,-754.0
599.416,877.0,-24.0,-498.0
599.54,973.0,42.0,-261.0
599.664,985.0,84.0,-158.0
599.787,944.0,120.0,-245.0
599.911,830.0,98.0,-478.0
600.035,588.0,69.0,-732.0
600.16,265.0,33.0,-909.0
600.284,0.0,38.0,-986.0
600.828,-116.0,18.0,-1018.0
600.951,-94.0,-20.0,-1021.0
601.076,2.0,-29.0,-1024.0
601.2,186.0,-77.0,-940.0
601.324,454.0,-104.0,-798.0
