time,ax,ay,az
0.0,-6,-32,-357
0.142,-18,-77,-698
0.826,-16,-110,-1029
0.95,-50,-88,-1016
1.074,-29,-52,-1074
1.478,21,-94,-1042
1.602,58,-93,-1061
1.726,52,-82,-1050
1.851,30,-89,-1034
2.115,4,-110,-986
2.238,4,-85,-1021
2.782,-56,-4,-1025
3.871,-41,73,-1046
3.995,-36,238,-1014
4.118,-32,526,-858
4.242,-18,772,-562
4.386,-48,957,-274
4.49,-38,954,-65
4.754,-30,944,44
5.018,-61,966,-48
5.142,-50,910,-248
5.266,-29,765,-553
5.39,-13,521,-817
5.515,8,4,-338
5.638,12,-60,-696
5.762,4,-126,-1033
6.166,-10,-182,-1021
6.71,-10,-21,-1110
6.835,-12,197,-1108
6.958,-24,502,-881
7.082,-38,740,-465
7.206,-53,856,-26
7.33,-54,877,209
7.594,-72,913,298
7.722,-72,928,156
7.846,-73,912,-80
7.97,-45,801,-421
8.094,-45,568,-720
8.218,-42,286,-940
8.342,-66,76,-1045
8.466,-21,-209,-1130
8.59,-17,-252,-1142
8.714,-5,-268,-1125
9.258,-50,8,-1096
9.383,-57,314,-998
9.506,-72,662,-725
9.63,-85,909,-294
9.754,-74,920,33
10.018,-52,930,206
10.142,-54,974,170
10.406,-77,976,69
10.53,-76,916,-92
10.654,-66,754,-410
10.778,-41,537,-740
10.902,-45,306,-977
11.027,-54,161,-1061
11.29,-58,41,-1085
11.415,-42,5,-1065
11.942,-60,5,-1017
12.206,-85,118,-1101
12.33,-116,334,-1130
12.454,-138,621,-950
12.578,-134,816,-510
12.702,-110,840,-104
12.826,-90,824,109
12.95,-97,853,184
13.354,-101,893,188
13.478,-98,857,172
13.602,-125,870,105
13.726,-166,868,-130
13.85,-205,805,-410
13.974,-178,644,-724
14.098,-141,494,-930
14.222,-105,408,-1148
14.346,-122,348,-1188
14.47,-118,262,-1182
14.594,-121,153,-1066
14.718,-101,57,-1066
15.402,-21,53,-1120
15.526,-34,240,-1205
15.65,-96,492,-1194
15.774,-122,680,-885
15.899,-133,773,-410
16.026,-57,816,44
16.15,-33,820,277
16.414,-45,788,418
16.678,-57,798,329
16.802,-53,832,128
16.926,-78,817,-188
17.05,-81,800,-526
17.174,-64,608,-845
17.298,2,348,-1090
17.423,-24,108,-1149
17.546,-28,-6,-1153
17.67,-62,-44,-1109
18.494,-38,-46,-1073
18.618,-26,62,-1157
18.742,-16,416,-1086
18.866,4,750,-745
18.99,-1,941,-230
19.114,-8,914,128
19.238,-20,885,216
19.502,-48,900,214
19.906,-64,944,192
20.03,-76,930,74
20.154,-86,926,-82
20.282,-90,922,-289
20.406,-76,848,-534
20.53,-29,668,-746
20.654,-42,480,-906
20.778,-82,312,-1032
20.909,-161,193,-1092
21.026,-169,68,-1118
21.29,-134,-34,-1070
21.694,-97,12,-1081
21.818,-80,169,-1144
21.942,-77,449,-1070
22.066,-81,701,-848
22.19,-104,818,-505
22.314,-96,808,-232
22.438,-73,822,-33
22.562,-58,882,74
22.686,-68,950,132
23.09,-62,957,121
23.214,-50,921,68
23.338,-68,894,-89
23.462,-88,796,-352
23.586,-106,653,-624
23.71,-44,474,-794
23.85,-32,332,-929
23.958,-32,237,-1073
24.082,-74,190,-1154
24.206,-74,197,-1150
24.754,-12,186,-1060
24.878,-14,292,-1072
25.002,-29,490,-882
25.126,-48,741,-581
25.25,-64,910,-237
25.374,-62,969,-62
25.498,-52,974,-21
26.026,-54,976,-177
26.15,-49,869,-336
26.274,-24,688,-590
26.398,9,462,-853
26.522,-5,245,-1017
26.646,-33,80,-1101
26.77,-53,-20,-1094
26.894,-34,-61,-1074
27.438,-5,13,-1064
27.562,4,190,-1028
27.686,12,461,-865
27.81,-1,737,-565
27.934,-21,920,-272
28.742,-26,997,-104
28.866,-41,977,-236
28.99,-57,869,-454
29.114,-36,676,-686
29.238,-25,444,-870
29.362,-14,236,-980
29.486,-36,97,-1042
30.45,-17,29,-1004
30.574,1,305,-933
30.698,12,622,-705
30.822,10,877,-393
30.946,-5,940,-122
31.07,-18,973,-30
31.194,-18,998,-61
31.599,-20,1002,-174
31.722,-42,960,-269
31.846,-65,822,-452
31.97,-78,597,-698
32.094,-86,310,-901
32.218,-105,98,-1040
32.342,-124,-49,-1052
32.466,-113,-93,-1065
32.59,-64,-110,-1042
33.118,-32,-36,-1036
33.242,-24,181,-984
33.366,-12,498,-816
33.49,-13,802,-510
33.614,-22,940,-214
33.738,-40,973,-4
34.003,-49,997,53
34.546,-86,982,-125
34.67,-84,889,-341
34.794,-62,694,-637
34.918,-10,292,-860
35.042,-21,32,-1049
35.166,-37,-120,-1085
35.29,-38,-61,-1085
35.694,-22,-57,-1061
35.818,-18,-5,-1137
35.942,-10,146,-1138
36.066,-9,364,-989
36.19,-41,614,-670
36.314,-66,796,-372
36.438,-73,916,-153
36.562,-58,962,-30
37.249,-64,985,17
37.374,-52,944,-80
37.498,-28,881,-252
37.622,-4,782,-532
37.746,16,628,-786
37.87,-2,470,-952
37.994,-16,333,-1049
38.118,-38,245,-1061
38.242,-32,161,-1082
38.926,-40,98,-1069
39.05,-33,188,-1160
39.174,-41,350,-1128
39.298,-32,542,-928
39.422,-52,708,-589
39.546,-64,825,-310
39.67,-65,898,-146
39.794,-68,954,-61
40.478,-36,949,-61
40.602,-21,893,-209
40.726,-9,813,-438
40.85,-16,681,-674
40.974,-36,517,-889
41.098,-57,338,-1025
41.222,-64,188,-1065
41.348,-69,72,-1060
42.33,-24,-32,-1078
42.454,-16,21,-1162
42.578,-24,222,-1150
42.702,-44,497,-968
42.826,-53,753,-609
42.95,-52,840,-289
43.074,-45,857,-64
43.198,-37,885,28
43.322,-46,937,64
43.726,-53,944,-38
43.85,-53,841,-213
43.974,-45,742,-474
44.098,-34,596,-737
44.222,-10,385,-1000
44.346,2,213,-1090
44.61,-50,110,-1076
44.734,-82,36,-1080
44.858,-92,-13,-1058
45.262,-56,-25,-1054
45.386,-38,73,-1134
45.51,-46,240,-1168
45.634,-33,450,-1076
45.762,-36,656,-826
45.886,-18,769,-481
46.01,-28,841,-185
46.134,-29,873,18
46.258,-32,938,81
46.522,-26,980,38
46.646,-29,914,-16
46.77,-48,846,-156
46.898,-58,781,-361
47.022,-85,672,-646
47.146,-89,532,-906
47.27,-126,398,-1049
47.394,-86,302,-1128
47.518,-57,165,-1101
47.642,-12,29,-1089
47.906,-16,-25,-1054
48.03,-4,68,-1156
48.154,1,260,-1209
48.278,13,496,-1077
48.402,17,677,-722
48.526,-4,770,-324
48.65,-22,808,-46
48.774,-56,865,85
48.898,-62,906,120
49.162,-62,957,74
49.286,-57,933,-8
49.41,-60,860,-178
49.534,-77,778,-409
49.662,-73,617,-682
49.786,-52,441,-877
49.91,-37,232,-1022
50.034,-72,118,-1076
50.158,-108,37,-1117
50.282,-100,-8,-1104
50.406,-65,-61,-1076
50.95,-17,-80,-1060
51.074,-16,-6,-1156
51.198,-10,192,-1168
51.322,-1,444,-1017
51.446,-22,664,-629
51.57,-45,798,-234
51.694,-56,856,32
51.958,-45,942,130
52.082,-56,954,94
52.206,-66,922,-17
52.33,-73,798,-276
52.454,-44,585,-614
52.578,-12,349,-948
52.702,9,146,-1114
52.826,4,44,-1190
52.95,-12,-9,-1148
53.074,-18,-33,-1096
53.478,-48,-20,-1076
53.602,-50,68,-1125
53.73,-44,208,-1104
53.854,-33,454,-912
53.978,-40,688,-554
54.101,-54,866,-206
54.226,-49,916,21
54.77,-49,944,118
54.894,-46,929,16
55.018,-52,822,-238
55.142,-57,669,-549
55.266,-77,373,-918
55.389,-53,174,-1077
55.514,-10,20,-1189
55.778,21,-21,-1118
56.462,5,-42,-1092
56.586,1,100,-1149
56.71,-1,342,-1096
56.834,-6,613,-849
56.958,-22,768,-496
57.082,-48,844,-170
57.206,-66,877,17
57.609,-46,957,21
57.733,-41,937,-101
57.858,-28,854,-318
57.99,-38,725,-594
58.114,-46,537,-820
58.238,-110,101,-892
58.361,-108,-68,-953
58.486,-98,-196,-1005
58.61,-50,-40,-1085
59.294,-28,13,-1133
59.418,-30,126,-1200
59.542,-24,310,-1136
59.666,-10,533,-828
59.79,-10,720,-433
59.914,-29,820,-132
60.037,-42,872,41
60.162,-48,924,90
60.426,-40,978,34
60.55,-34,929,-62
60.674,-64,849,-249
60.798,-85,744,-500
60.922,-124,577,-740
61.046,-101,377,-940
61.17,-105,202,-1084
61.434,-98,88,-1166
61.557,-81,60,-1096
61.822,-57,78,-969
61.946,-46,253,-945
62.074,-21,528,-888
62.197,-30,921,-885
62.322,-9,1114,-749
62.445,-54,1046,-541
62.57,-74,837,-238
62.693,-124,713,-30
62.818,-132,796,142
62.942,-102,858,180
63.065,-82,933,196
63.19,-78,960,130
63.314,-112,992,108
63.438,-120,984,105
63.561,-109,926,72
63.685,-82,832,-58
63.81,-70,750,-297
63.934,-78,609,-574
64.058,-33,398,-805
64.181,57,253,-981
64.305,172,154,-1046
64.43,261,120,-1080
64.554,216,38,-1074
64.678,85,42,-1113
64.802,-60,76,-1102
64.925,-114,82,-1077
65.19,-41,56,-1088
65.314,2,172,-1249
65.438,72,353,-1325
65.562,38,548,-1094
65.686,-45,632,-649
65.813,-136,704,-229
65.937,-160,768,42
66.062,-129,848,197
66.326,-112,912,257
66.45,-133,952,209
66.573,-162,981,141
66.697,-104,925,41
66.822,-64,882,-73
66.945,-26,786,-314
67.07,-32,641,-598
67.193,-10,466,-846
67.317,-56,294,-1008
67.441,-82,216,-1094
67.565,-161,145,-1186
67.689,-153,112,-1176
67.813,-137,52,-1132
67.937,-60,-4,-1058
68.341,10,-2,-1168
68.465,70,88,-1333
68.59,80,293,-1281
68.713,54,484,-933
68.838,-34,658,-465
68.961,-124,736,-120
69.085,-144,812,98
69.21,-132,874,222
69.333,-64,918,241
69.737,-44,902,108
69.865,-72,884,-73
69.989,-53,853,-289
70.114,-33,806,-586
70.238,28,618,-765
70.361,73,414,-948
70.486,68,240,-1052
70.609,24,169,-1137
70.734,-28,129,-1129
70.857,-50,109,-1081
71.401,-58,46,-1022
71.525,-66,65,-1053
71.649,-93,140,-1180
71.773,-64,165,-1297
71.901,-33,266,-1232
72.025,-14,425,-890
72.15,-49,662,-410
72.273,-77,816,-77
72.397,-56,864,105
72.661,-34,909,169
72.925,-72,957,137
73.049,-36,890,50
73.173,-2,864,-74
73.297,9,825,-281
73.422,24,740,-474
73.545,50,576,-690
73.669,85,398,-841
73.793,33,312,-1054
74.061,-61,188,-1196
74.185,-70,138,-1086
74.309,-66,94,-1038
74.854,-32,64,-1254
74.977,24,108,-1360
75.101,13,293,-1253
75.23,-45,509,-748
75.353,-132,726,-290
75.477,-142,790,-17
75.601,-88,818,80
75.725,-89,881,158
75.989,-68,966,146
76.113,-37,949,64
76.237,-2,900,-69
76.361,20,852,-233
76.485,20,753,-508
76.609,1,600,-712
76.733,-36,416,-908
76.857,-84,228,-988
76.981,-176,110,-1117
77.105,-217,-8,-1266
77.23,-225,-28,-1250
77.354,-172,-53,-1169
77.897,-93,-32,-1100
78.025,-45,-41,-1332
78.149,-20,6,-1414
78.274,-50,184,-1172
78.397,-78,398,-624
78.521,-172,654,-138
78.646,-185,770,125
78.769,-178,874,206
78.893,-90,885,186
79.017,-56,912,108
79.141,-41,902,22
79.265,4,906,-68
79.389,49,848,-233
79.513,76,804,-422
79.637,58,642,-648
79.761,44,465,-866
79.886,10,221,-1001
80.149,-84,54,-1089
80.413,-138,78,-1108
80.537,-98,34,-1080
80.942,-5,-16,-1165
81.065,49,-29,-1328
81.189,84,16,-1373
81.313,50,177,-1112
81.437,-6,156,-772
81.562,-100,393,-372
81.685,-136,530,-97
81.809,-153,866,150
81.936,-133,920,189
82.061,-140,964,153
82.186,-177,986,102
82.309,-124,945,52
82.433,-18,838,-93
82.557,121,733,-313
82.681,186,598,-537
82.805,125,480,-817
82.929,73,317,-1052
83.053,12,184,-1132
83.177,56,69,-1133
83.301,30,8,-1085
83.425,-13,0,-1134
83.549,-61,8,-1074
83.813,-49,-16,-1044
83.937,-41,-22,-1146
84.061,-9,-18,-1297
84.185,-25,146,-1329
84.31,-45,390,-1008
84.433,-116,654,-498
84.557,-164,761,-17
84.681,-146,782,224
84.805,-104,821,297
85.209,0,826,270
85.333,18,801,-16
85.457,37,712,-418
85.581,24,538,-841
85.705,-4,294,-1097
85.829,-21,124,-1245
85.957,-52,41,-1233
86.081,-65,20,-1146
86.485,-77,-4,-1182
86.609,-53,65,-1297
86.733,-33,238,-1244
86.857,-20,480,-877
86.981,-30,682,-410
87.105,-38,788,-62
87.229,-28,837,129
87.493,2,900,158
87.617,8,876,102
87.741,-18,821,-37
87.865,-54,738,-321
87.989,-77,600,-689
88.113,-65,420,-1020
88.237,-9,226,-1137
88.361,8,85,-1161
88.486,20,6,-1145
88.609,-20,-33,-1118
88.733,-14,-46,-1080
88.857,-25,-68,-1098
88.982,-17,-33,-1257
89.105,-42,160,-1262
89.229,-49,406,-1033
89.353,-9,614,-638
89.477,18,712,-348
89.601,-6,781,-172
89.725,-76,873,-54
89.993,-38,884,-24
90.118,0,801,-157
90.241,26,680,-369
90.365,20,506,-769
90.489,40,301,-1024
90.613,29,138,-1202
90.737,-62,52,-1209
90.861,-84,18,-1194
90.986,-73,-49,-1134
91.109,16,-94,-1069
91.233,24,-126,-1114
91.357,41,-44,-1253
91.481,36,97,-1273
91.605,-1,318,-1072
91.729,-38,534,-664
91.854,-102,724,-333
91.977,-122,816,-136
92.101,-149,862,-68
92.225,-145,909,-14
92.489,-117,920,-74
92.613,-98,860,-229
92.737,-46,710,-458
92.861,-52,557,-778
92.985,-1,358,-934
93.109,2,206,-1061
93.233,26,58,-1065
93.357,-14,-37,-1104
93.764,-64,-105,-1044
94.029,-74,-54,-1148
94.153,-45,28,-1264
94.278,0,192,-1205
94.401,38,414,-920
94.525,21,636,-552
94.649,-1,780,-248
94.773,-26,852,-61
95.161,-57,830,-25
95.285,-48,730,-262
95.409,-34,546,-644
95.533,-34,353,-1006
95.657,-77,178,-1206
95.781,-100,21,-1208
95.905,-106,-45,-1148
96.029,-56,-105,-1077
96.153,0,-76,-1064
96.417,54,-68,-1124
96.541,62,20,-1256
96.665,38,177,-1234
96.789,38,413,-977
96.913,4,596,-544
97.037,-5,740,-212
97.161,-58,825,-12
97.285,-90,888,112
97.409,-121,928,124
97.533,-117,904,106
97.657,-86,830,-25
97.785,-32,666,-317
97.909,20,436,-705
98.035,17,209,-1069
98.157,18,29,-1226
98.281,32,-80,-1173
98.405,30,-138,-1088
98.529,13,-158,-1026
98.793,-4,-154,-1138
98.917,-25,-49,-1294
99.041,-13,177,-1281
99.165,-10,453,-1052
99.289,20,628,-566
99.413,-13,714,-178
99.537,-34,788,100
99.661,-44,880,174
99.785,-14,950,138
100.049,29,913,96
100.173,48,821,32
100.297,9,689,-193
100.421,-41,552,-612
100.545,-65,326,-1014
100.669,-93,121,-1260
100.793,-80,-50,-1262
100.917,-74,-126,-1140
101.041,-37,-138,-1017
101.165,-12,-117,-996
101.289,-21,-80,-1036
101.413,-68,-17,-1105
101.537,-142,193,-1085
101.665,-137,469,-966
101.789,-93,702,-661
101.913,-30,825,-350
102.037,-53,906,-86
102.161,-62,982,26
102.425,-68,1005,61
102.549,-73,988,-54
102.673,-46,898,-309
102.801,-8,565,-654
102.925,33,113,-890
103.049,37,-298,-1004
103.313,8,-461,-966
103.857,8,-381,-988
103.981,5,-165,-1025
104.105,-8,214,-949
104.229,-30,673,-682
104.353,-73,914,-276
104.477,-93,980,-6
104.601,-92,985,74
105.285,-53,974,-106
105.409,-54,785,-386
105.533,-38,457,-769
105.657,-28,142,-1004
106.745,-4,13,-1033
106.869,8,190,-988
106.993,4,464,-844
107.117,-14,724,-600
107.241,-54,896,-352
107.365,-69,958,-170
107.49,-74,990,-77
108.033,-96,1005,-28
108.157,-113,968,-129
108.281,-94,829,-328
108.405,-74,634,-546
108.529,-57,382,-769
108.653,-78,197,-917
108.777,-88,64,-1033
109.181,-44,4,-1053
109.725,-24,74,-1122
109.849,-21,230,-1148
109.973,-52,444,-992
110.097,-89,673,-632
110.222,-120,828,-246
110.349,-96,937,8
110.893,-45,972,69
111.017,-64,920,-68
111.141,-73,777,-354
111.265,-70,550,-664
111.389,-48,337,-926
111.513,-34,173,-1048
111.637,-30,101,-1134
111.761,-32,33,-1125
111.885,-25,9,-1096
112.289,-16,24,-1081
112.413,-26,118,-1138
112.537,-29,330,-1105
112.661,-37,553,-900
112.785,-58,734,-536
112.909,-85,812,-233
113.033,-97,880,-52
113.157,-77,945,-13
113.562,-21,982,20
113.685,-26,897,-109
113.809,-40,770,-365
113.933,-62,576,-652
114.057,-78,420,-893
114.181,-84,302,-1036
114.305,-73,217,-1073
114.432,-58,140,-1084
115.117,-8,84,-1069
115.241,-6,213,-1116
115.365,-13,381,-1030
115.489,-24,565,-829
115.613,-26,718,-470
115.737,-18,857,-205
115.861,-14,933,-50
116.405,-53,908,-116
116.529,-80,765,-326
116.654,-84,586,-676
116.777,-73,444,-994
116.901,-60,330,-1164
117.025,-46,209,-1136
117.149,-45,122,-1070
117.413,-18,14,-1081
117.537,-17,-16,-1053
117.801,0,-21,-1076
117.925,4,76,-1128
118.049,5,258,-1069
118.173,6,502,-872
118.297,5,689,-558
118.421,-2,816,-273
118.545,-22,916,-69
119.233,-60,961,36
119.357,-84,897,-102
119.481,-72,748,-404
119.605,-49,554,-702
119.729,-6,322,-962
119.853,-10,154,-1062
119.977,-28,14,-1097
120.801,5,-25,-1122
120.925,8,193,-1076
121.049,-18,492,-902
121.173,-60,757,-590
121.297,-66,864,-293
121.421,-42,908,-62
121.545,-29,929,65
121.669,-49,974,86
121.933,-69,965,-13
122.057,-73,900,-193
122.181,-74,754,-473
122.305,-78,542,-758
122.429,-50,312,-949
122.553,-22,152,-1064
122.677,-10,57,-1092
123.345,-26,-42,-1078
123.469,-14,113,-1149
123.593,-8,380,-1045
123.717,-10,644,-769
123.841,-40,800,-385
123.965,-56,856,-138
124.089,-70,917,-30
124.213,-66,970,-6
124.617,-49,949,-80
124.741,-77,830,-286
124.865,-94,676,-590
124.989,-80,454,-837
125.113,-50,281,-1008
125.237,-32,121,-1092
125.361,-20,49,-1129
125.485,-6,-25,-1104
126.169,-29,-69,-1045
126.293,-26,22,-1150
126.417,-17,233,-1160
126.541,-10,466,-976
126.665,-24,685,-606
126.789,-54,785,-250
126.913,-82,850,-33
127.037,-82,881,96
127.305,-49,949,149
127.429,-42,957,100
127.553,-57,957,25
127.677,-70,920,-133
127.801,-90,818,-353
127.925,-104,657,-669
128.049,-116,457,-904
128.173,-132,317,-1070
128.297,-122,169,-1113
128.421,-112,86,-1132
128.545,-81,-16,-1106
128.669,-73,-40,-1078
129.493,-13,26,-1086
129.617,34,197,-1284
129.741,62,413,-1325
129.865,68,581,-1080
129.989,1,612,-500
130.113,-53,657,-29
130.237,-72,730,225
130.361,-64,838,282
130.485,-57,904,281
130.609,-66,940,186
130.733,-76,912,-22
130.857,-80,817,-328
130.981,-85,637,-638
131.105,-108,368,-853
131.233,-93,93,-1005
131.357,-73,-85,-1101
131.481,-41,-80,-1174
131.605,-41,12,-1102
131.869,-10,60,-996
132.133,-24,-36,-1026
132.397,-12,42,-1136
132.521,-4,204,-1293
132.645,-9,432,-1257
132.769,-34,605,-981
132.893,-48,713,-534
133.017,-50,750,-154
133.141,-45,801,85
133.265,-48,870,221
133.389,-69,932,234
133.513,-69,954,217
133.637,-65,925,134
133.761,-77,872,-38
133.885,-97,817,-285
134.009,-118,774,-624
134.133,-96,617,-901
134.257,-62,440,-1085
134.381,-62,190,-1114
134.505,-64,54,-1124
134.769,-52,-74,-1078
135.173,-58,-81,-1076
135.301,-26,69,-1253
135.425,-30,341,-1190
135.549,-54,586,-882
135.672,-81,709,-401
135.797,-53,706,-60
135.921,-28,732,122
136.044,-29,788,292
136.309,-56,861,274
136.433,-41,838,120
136.557,-41,817,-105
136.681,-76,757,-373
136.805,-113,620,-706
136.929,-129,476,-976
137.053,-141,256,-1097
137.176,-110,134,-1064
137.3,-76,20,-1044
137.565,-46,-10,-1052
138.373,-8,136,-1182
138.496,12,377,-1165
138.62,2,632,-970
138.745,-29,790,-540
138.869,-54,884,-241
139.008,-45,932,-68
139.397,-52,973,17
139.525,-65,917,-85
139.648,-70,817,-302
139.773,-96,700,-569
139.897,-92,538,-845
140.021,-94,337,-1009
140.145,-78,184,-1101
140.269,-62,88,-1092
140.392,-56,50,-1074
140.516,-49,0,-1061
141.061,-36,113,-1113
141.185,-28,358,-1121
141.308,-50,614,-954
141.432,-58,754,-589
141.557,-61,798,-232
141.68,-46,858,-26
141.804,-44,942,42
142.209,-70,988,-14
142.332,-66,916,-158
142.457,-74,792,-380
142.581,-86,654,-608
142.705,-81,486,-814
142.828,-62,337,-973
142.953,-40,186,-1068
143.077,-37,77,-1081
144.149,-4,90,-1156
144.272,-9,288,-1146
144.396,-24,524,-986
144.521,-70,729,-600
144.645,-85,821,-248
144.769,-81,877,-10
144.894,-77,942,86
145.156,-60,954,-9
145.281,-50,877,-214
145.405,-38,838,-462
145.529,-25,706,-681
145.652,-45,512,-865
145.776,-66,261,-981
145.901,-85,100,-1085
146.165,-56,6,-1081
146.708,-14,42,-1094
146.832,21,185,-1134
146.957,17,418,-1072
147.08,-16,656,-754
147.205,-73,777,-370
147.329,-72,822,-64
147.452,-61,873,56
147.577,-29,929,58
147.701,-14,934,-12
147.827,-17,878,-237
147.953,-12,737,-497
148.077,18,541,-766
148.201,16,312,-952
148.325,13,153,-1052
148.449,-8,61,-1092
149.412,14,2,-1062
149.536,-4,85,-1140
149.665,-32,289,-1116
149.788,-38,536,-876
149.913,-50,728,-454
150.036,-50,814,-78
150.161,-48,866,112
150.284,-46,900,98
150.408,-56,877,-52
150.532,-80,742,-365
150.656,-69,594,-716
150.78,-42,380,-960
150.905,-14,209,-1070
151.028,-17,48,-1074
151.292,-28,-5,-1076
152.116,-14,121,-1085
152.244,-32,366,-1030
152.369,-72,622,-816
152.492,-114,780,-452
152.617,-122,826,-110
152.741,-101,865,90
152.864,-77,926,133
152.988,-48,980,82
153.112,-30,990,-24
153.236,-18,905,-216
153.36,-14,756,-502
153.485,-2,570,-780
153.609,-8,414,-989
153.732,-13,245,-1050
153.856,-16,133,-1093
154.121,-10,18,-1068
154.944,-14,26,-1088
155.068,-5,230,-1177
155.192,-6,445,-1070
155.316,-18,654,-793
155.44,-18,737,-372
155.564,-10,836,-108
155.688,0,913,14
155.813,-8,974,38
155.937,-20,1002,-24
156.061,-44,953,-156
156.184,-81,822,-418
156.312,-104,660,-668
156.436,-125,462,-896
156.56,-112,333,-994
156.685,-82,208,-1076
157.929,-4,81,-1093
158.052,0,216,-1142
158.176,-9,452,-1045
158.3,-56,664,-764
158.425,-100,793,-374
158.548,-106,833,-57
158.672,-88,853,122
158.796,-72,882,217
158.92,-84,922,190
159.044,-69,904,78
159.168,-60,865,-209
159.292,-44,710,-517
159.416,-37,494,-850
159.54,-10,265,-1016
159.664,6,113,-1110
159.792,1,40,-1116
160.056,-38,-41,-1082
160.603,-30,38,-1036
160.729,-8,125,-1181
160.852,-20,282,-1197
160.976,-92,510,-1100
161.1,-144,698,-601
161.225,-144,794,-157
161.348,-66,769,232
161.473,-32,814,348
161.596,-21,882,370
161.72,-32,892,242
161.844,-49,856,-37
161.968,-72,846,-417
162.092,-64,868,-665
162.216,-77,725,-804
162.34,-98,548,-918
162.464,-113,320,-1036
162.588,-78,237,-1089
162.712,-30,120,-1065
162.837,-2,60,-1068
163.52,-2,6,-893
163.644,-8,30,-933
163.769,-30,168,-1029
163.892,-62,333,-1134
164.016,-81,590,-897
164.141,-73,705,-445
164.264,-37,809,-64
164.388,-12,820,194
164.512,2,886,261
164.64,-6,870,172
164.764,-44,842,-112
164.888,-72,714,-436
165.012,-96,552,-744
165.136,-92,352,-966
165.26,-56,144,-1129
165.384,-16,48,-1173
165.508,17,-37,-1121
166.332,-28,20,-1161
166.456,-25,261,-1225
166.581,-33,536,-1026
166.704,-45,718,-550
166.828,-62,750,-58
166.952,-73,772,192
167.076,-90,869,264
167.34,-69,956,168
167.464,-81,941,41
167.588,-120,872,-190
167.712,-166,753,-461
167.836,-168,597,-757
167.96,-180,433,-970
168.084,-142,277,-1058
168.208,-112,145,-1094
168.332,-68,62,-1066
169.28,-5,88,-1165
169.404,33,260,-1181
169.528,46,498,-1001
169.652,12,656,-513
169.776,-33,760,-70
169.9,-73,812,214
170.024,-69,876,308
170.288,-60,929,218
170.412,-78,902,37
170.536,-98,802,-234
170.66,-114,709,-512
170.784,-81,620,-777
170.908,-22,493,-956
171.033,-32,320,-1054
171.156,-64,168,-1080
171.42,-80,88,-1062
172.105,-33,180,-1093
172.228,-16,420,-992
172.352,-2,681,-752
172.477,-20,864,-372
172.6,-28,922,-100
172.724,-30,940,44
172.991,-36,892,56
173.116,-61,896,-9
173.24,-70,894,-174
173.364,-62,848,-404
173.488,-38,713,-697
173.612,-41,496,-892
173.736,-42,262,-1025
173.86,-42,64,-1104
173.984,-30,-52,-1117
174.108,-25,-106,-1100
174.652,-6,-65,-1058
174.776,-2,80,-1132
174.9,-25,373,-1000
175.024,-65,665,-668
175.148,-89,806,-194
175.273,-77,812,120
175.396,-57,808,277
175.52,-49,870,256
175.644,-45,868,32
175.768,-56,793,-332
175.896,-41,613,-673
176.02,-42,468,-920
176.144,-34,306,-1037
176.268,-37,196,-1096
176.392,-33,81,-1085
176.516,-20,5,-1066
177.063,-16,70,-1098
177.188,-34,276,-1098
177.312,-57,536,-952
177.436,-77,744,-552
177.56,-72,816,-130
177.685,-64,853,164
177.808,-50,914,244
177.932,-26,970,213
178.056,-20,962,81
178.18,-26,866,-193
178.304,-62,689,-538
178.428,-76,504,-813
178.552,-81,337,-982
178.676,-60,209,-1068
178.801,-38,110,-1129
178.924,-16,57,-1113
179.608,-16,178,-1096
179.732,-24,420,-965
179.856,-64,702,-673
179.98,-76,830,-273
180.104,-70,862,1
180.228,-45,885,108
180.352,-45,952,105
180.476,-56,974,-24
180.6,-66,910,-221
180.724,-70,798,-482
180.848,-77,674,-709
180.972,-62,509,-908
181.1,-52,337,-1008
181.224,-30,176,-1054
181.348,-26,81,-1049
181.472,-21,18,-1052
182.296,-5,44,-1132
182.42,-2,277,-1141
182.544,-33,546,-1114
182.668,-80,750,-790
182.792,-108,761,-394
182.916,-101,777,-38
183.04,-77,832,154
183.164,-46,937,188
183.428,-18,944,142
183.552,-20,853,-29
183.676,-64,808,-326
183.8,-100,722,-614
183.924,-137,578,-880
184.048,-109,380,-1061
184.172,-68,256,-1150
184.296,-36,168,-1150
184.42,-13,104,-1074
184.544,-9,36,-1012
184.808,-25,6,-993
185.215,-44,-44,-1045
185.34,-40,74,-993
185.464,-65,321,-888
185.588,-89,644,-669
185.712,-117,862,-408
185.836,-118,977,-196
185.96,-113,986,-57
186.084,-109,997,13
186.208,-110,1008,29
186.645,-94,968,-212
186.736,-58,800,-504
186.86,-30,506,-818
186.984,-21,222,-977
187.108,-33,17,-1036
188.212,-36,-26,-1022
188.336,-20,85,-1017
188.46,-14,332,-958
188.584,-14,601,-742
188.708,-32,853,-438
188.832,-46,962,-157
188.956,-50,998,-8
189.08,-45,1002,68
189.204,-38,1009,132
189.471,-44,1016,149
189.596,-48,1025,17
189.72,-44,962,-242
189.845,-26,776,-556
189.968,-8,485,-824
190.092,0,194,-961
190.216,-9,-21,-1017
190.34,-17,-146,-1012
191.444,-33,-98,-1020
191.568,-26,152,-981
191.692,-29,477,-793
191.816,-48,788,-465
191.94,-66,953,-132
192.064,-70,1010,86
192.468,-68,982,77
192.592,-18,909,-264
192.716,6,728,-620
192.84,33,448,-914
192.964,1,197,-978
193.088,-4,36,-1033
194.176,-24,89,-1022
194.3,-53,336,-924
194.424,-73,657,-654
194.548,-88,884,-310
194.672,-80,982,-13
194.796,-80,994,122
195.06,-82,1010,110
195.188,-77,1012,45
195.308,-77,958,-157
195.432,-64,802,-452
195.556,-53,546,-786
195.68,-38,268,-976
195.804,-45,86,-1045
196.732,-37,41,-1038
196.856,-46,188,-1000
196.98,-50,460,-888
197.104,-56,740,-628
197.228,-54,942,-333
197.352,-56,1012,-66
197.476,-52,1018,86
197.6,-54,1000,169
198.004,-56,994,190
198.128,-56,976,10
198.256,-58,826,-332
198.38,-37,584,-684
198.504,-18,286,-938
198.628,-4,102,-1008
199.872,-37,81,-1014
199.996,-52,362,-876
200.12,-72,698,-512
200.244,-96,914,-98
200.648,-105,1021,160
200.772,-86,961,-74
200.896,-52,788,-448
201.02,-37,496,-810
201.144,-32,182,-986
201.268,-36,5,-1018
202.092,-20,98,-1034
202.216,-24,374,-922
202.34,-36,681,-633
202.464,-41,885,-218
202.588,-42,960,92
203.256,-56,1000,166
203.38,-54,958,-50
203.504,-36,798,-413
203.628,-22,524,-789
203.752,-24,232,-986
203.876,-42,29,-1033
204.84,-40,-61,-1005
204.964,-36,50,-1013
205.088,-38,286,-921
205.212,-44,597,-710
205.336,-58,850,-389
205.46,-66,1000,-121
205.583,-61,1032,48
205.708,-58,1030,134
205.972,-56,1009,146
206.096,-57,1016,50
206.222,-61,945,-186
206.344,-44,774,-529
206.468,-18,501,-832
206.592,4,240,-992
206.716,0,48,-1032
207.804,-29,45,-1033
207.927,-40,286,-952
208.052,-46,608,-770
208.176,-52,876,-440
208.3,-41,989,-141
208.424,-38,1006,70
208.828,-36,1010,62
208.952,-32,952,-150
209.076,-21,761,-513
209.2,-10,461,-825
209.324,-12,140,-1004
209.448,-18,-57,-1033
210.131,-40,-32,-1029
210.256,-52,153,-994
210.379,-44,474,-837
210.504,-40,768,-569
210.628,-38,962,-266
210.752,-50,997,-62
211.156,-56,1025,8
211.28,-58,980,-150
211.403,-53,854,-440
211.532,-52,638,-722
211.656,-42,410,-932
211.78,-30,204,-1005
211.903,-10,44,-1032
212.028,1,-54,-1034
212.152,26,-74,-1056
212.275,18,-61,-1037
212.68,6,-18,-1021
212.803,17,154,-1002
212.928,8,429,-866
213.052,-26,717,-644
213.176,-58,900,-350
213.3,-82,978,-148
213.564,-92,1001,-72
213.687,-78,961,-248
213.812,-65,813,-508
213.936,-36,590,-786
214.06,-20,346,-944
214.184,-22,156,-1014
214.308,-48,26,-1033
215.132,-2,48,-1005
215.256,-42,333,-905
215.38,-72,668,-722
215.504,-105,870,-540
215.631,-89,938,-397
216.035,-98,949,-392
216.159,-34,861,-524
216.284,44,668,-734
216.408,106,474,-896
216.532,126,321,-984
216.656,129,246,-1002
217.059,97,118,-1021
217.324,98,126,-1018
217.448,58,313,-950
217.572,25,522,-837
217.695,-61,749,-712
217.82,-94,845,-596
217.944,-125,917,-480
218.068,-137,948,-365
218.191,-134,958,-289
218.456,-141,950,-310
218.58,-138,894,-446
218.704,-92,768,-676
218.827,-53,586,-865
218.951,-30,381,-982
219.076,-16,142,-1012
219.199,-12,-45,-1029
219.603,-25,-117,-1076
219.728,-57,-98,-1066
219.855,-8,108,-986
219.979,-28,332,-885
220.103,37,685,-721
220.228,16,865,-488
220.351,30,1018,-209
220.476,-5,1028,-46
220.739,-24,1029,-80
220.865,-18,948,-278
220.988,-9,810,-542
221.112,2,502,-809
221.235,16,184,-938
221.36,-4,-89,-1006
221.623,-28,-178,-1038
222.028,-40,-6,-1012
222.152,-50,297,-885
222.276,-54,690,-658
222.399,-41,949,-313
222.524,-33,1033,-86
222.648,-24,1017,13
223.051,-48,993,-186
223.175,-66,846,-452
223.299,-66,566,-765
223.423,-61,236,-945
223.547,-45,-10,-1013
223.671,-38,-149,-1013
224.339,-50,-108,-993
224.464,-57,188,-914
224.587,-60,582,-712
224.711,-48,892,-456
224.835,-33,1017,-238
225.239,-9,993,-180
225.369,-14,977,-282
225.487,-25,897,-468
225.611,-44,689,-696
225.735,-53,396,-882
225.86,-50,133,-997
225.983,-38,-21,-1018
226.807,-45,77,-982
226.931,-52,348,-869
227.055,-56,685,-660
227.179,-64,882,-406
227.303,-65,989,-220
227.847,-54,973,-214
227.971,-50,920,-360
228.095,-44,784,-589
228.219,-46,517,-806
228.347,-54,253,-956
228.471,-54,32,-992
229.139,-9,-80,-1046
229.263,-6,141,-1006
229.387,-18,465,-849
229.511,-33,797,-561
229.635,-38,957,-305
229.899,-25,1014,-173
230.024,-18,1000,-245
230.147,-9,960,-378
230.271,1,828,-566
230.395,2,605,-764
230.523,-2,344,-918
230.647,-10,93,-988
230.771,-13,-44,-1014
231.455,-34,-84,-998
231.58,-53,173,-953
231.703,-77,508,-792
231.827,-90,818,-593
231.951,-100,942,-385
232.075,-100,982,-289
232.622,-97,961,-304
232.747,-89,884,-470
232.871,-74,725,-682
232.995,-54,460,-856
233.119,-37,189,-960
233.243,-29,-24,-1006
233.368,-24,-124,-1022
233.911,-85,-118,-974
234.035,-101,34,-968
234.159,-140,385,-848
234.283,-118,732,-641
234.407,-142,966,-354
234.531,-142,989,-172
234.795,-132,998,-138
234.92,-117,1002,-210
235.043,-98,941,-374
235.167,-73,770,-594
235.291,-54,561,-814
235.415,-46,333,-940
235.539,-46,153,-1000
235.663,-46,4,-1018
235.787,-45,-82,-1028
236.471,-32,-148,-985
236.595,-44,21,-958
236.719,-58,325,-850
236.847,-73,690,-669
236.971,-80,906,-430
237.095,-86,985,-272
237.499,-60,944,-362
237.623,-40,792,-553
237.747,-32,584,-792
237.871,-28,293,-937
237.995,-25,80,-1012
238.823,-45,-34,-1024
238.947,-65,161,-976
239.071,-72,477,-824
239.195,-49,761,-613
239.319,-38,954,-366
239.447,-30,1012,-228
239.571,-34,1005,-189
239.695,-32,997,-233
239.819,-24,992,-329
239.943,-9,880,-498
240.068,0,666,-712
240.191,5,372,-900
240.316,0,140,-1000
240.439,1,-34,-1030
241.126,-10,-97,-1018
241.251,-37,85,-980
241.375,-73,378,-850
241.499,-98,718,-617
241.623,-101,928,-340
241.747,-89,1013,-150
242.011,-58,974,-213
242.136,-45,858,-429
242.26,-42,640,-692
242.383,-46,422,-869
242.507,-37,217,-970
242.632,-16,66,-1012
242.755,-10,-38,-1024
243.439,-21,-52,-986
243.563,-26,240,-914
243.687,-45,590,-689
243.811,-49,914,-409
243.936,-60,1004,-117
244.199,-44,1008,-45
244.323,-49,948,-250
244.481,-58,821,-524
244.571,-69,613,-770
244.695,-64,365,-916
244.819,-62,146,-1010
245.767,-64,-5,-1020
245.891,-56,217,-966
246.015,-45,554,-760
246.139,-33,862,-452
246.263,-36,1005,-114
246.387,-41,1029,60
246.511,-38,1037,102
246.635,-34,1009,-96
246.759,-46,822,-418
246.883,-49,520,-770
247.007,-50,178,-961
247.131,-53,-26,-1021
248.095,-74,-89,-1010
248.219,-68,148,-973
248.343,-70,481,-809
248.468,-64,804,-493
248.591,-74,957,-140
248.715,-70,1008,97
248.839,-60,1022,129
248.963,-69,1021,-8
249.087,-73,877,-321
249.211,-88,614,-662
249.336,-88,324,-914
249.459,-85,112,-1005
249.587,-80,-9,-1022
250.115,-70,-40,-1006
250.24,-66,180,-962
250.363,-70,518,-790
250.487,-65,816,-509
250.611,-57,980,-185
250.735,-48,1020,18
250.859,-40,1022,58
250.983,-41,1018,-8
251.107,-34,1018,-169
251.231,-22,901,-412
251.355,-25,652,-701
251.479,-46,352,-922
251.603,-70,140,-1034
252.567,-64,166,-1026
252.691,-72,398,-908
252.815,-80,710,-680
252.943,-100,889,-309
253.067,-105,998,-34
253.331,-104,1026,-5
253.455,-98,961,-242
253.579,-82,812,-542
253.703,-56,590,-776
253.831,-33,406,-932
253.955,-24,194,-1018
254.079,-32,53,-1054
254.747,-45,-81,-1012
254.871,-68,42,-974
254.995,-82,258,-912
255.119,-85,558,-768
255.243,-70,808,-526
255.367,-54,973,-213
255.491,-38,1020,32
255.755,-26,1022,158
255.879,-33,1024,29
256.003,-36,949,-257
256.127,-32,742,-581
256.251,-46,509,-846
256.375,-57,270,-966
256.499,-69,88,-1014
256.623,-60,-45,-1032
257.447,-78,-36,-997
257.571,-89,244,-893
257.695,-90,565,-692
257.819,-73,885,-394
257.943,-49,978,-94
258.071,-33,1014,105
258.195,-29,1017,142
258.319,-32,1033,49
258.443,-36,980,-186
258.567,-32,824,-485
258.691,-32,565,-765
258.815,-45,304,-910
258.939,-60,56,-966
259.063,-68,-81,-993
259.747,-62,-48,-996
259.871,-60,221,-958
259.995,-64,562,-772
260.119,-60,868,-449
260.243,-61,997,-132
260.367,-57,1040,-13
260.491,-45,1002,-128
260.615,-41,916,-352
260.739,-49,740,-610
260.864,-61,528,-824
260.987,-80,305,-953
261.111,-77,125,-1004
261.235,-76,-22,-1029
261.919,-85,-140,-982
262.043,-78,-58,-981
262.169,-62,153,-934
262.295,-50,505,-877
262.419,-53,773,-718
262.543,-60,920,-548
262.667,-45,937,-426
262.791,-40,970,-397
262.915,-61,856,-532
263.039,-76,637,-742
263.163,-80,278,-929
263.287,-57,53,-1010
263.971,-30,-82,-1034
264.375,-22,78,-993
264.499,-57,333,-909
264.623,-105,636,-732
264.747,-122,865,-522
264.871,-126,956,-348
264.995,-112,988,-256
265.259,-101,949,-326
265.383,-106,861,-506
265.507,-98,669,-714
265.631,-78,372,-877
265.755,-65,68,-968
265.879,-69,-140,-1000
266.547,-58,-160,-1012
266.671,-62,-16,-984
266.795,-57,282,-898
266.919,-66,628,-701
267.043,-61,872,-502
267.167,-62,960,-332
267.431,-34,972,-314
267.555,-40,884,-490
267.679,-52,636,-713
267.803,-54,325,-917
267.927,-45,26,-996
268.051,-40,-122,-1018
269.155,-57,141,-945
269.279,-70,508,-778
269.403,-82,878,-549
269.527,-72,945,-317
269.651,-56,986,-181
269.775,-49,1016,-97
270.039,-49,1041,-70
270.163,-73,997,-221
270.287,-74,713,-509
270.411,-66,337,-809
270.535,-33,-37,-982
270.662,-25,-176,-1013
271.591,-36,-154,-1010
271.715,-45,61,-974
271.839,-62,397,-858
271.963,-76,701,-660
272.087,-96,898,-429
272.211,-89,973,-245
272.335,-80,1006,-104
272.459,-62,1016,-20
273.003,-93,997,-26
273.127,-110,956,-214
273.251,-108,808,-524
273.375,-86,590,-789
273.499,-56,330,-956
273.623,-32,98,-1014
273.747,-25,-74,-1022
274.431,-32,-138,-1006
274.555,-36,36,-997
274.679,-57,341,-917
274.803,-65,625,-756
274.927,-73,848,-533
275.055,-62,949,-313
275.179,-54,997,-133
275.303,-42,1013,12
275.427,-36,1018,108
275.691,-49,1018,12
275.815,-65,985,-217
275.939,-81,832,-525
276.063,-81,586,-774
276.187,-65,280,-946
276.311,-52,50,-1018
276.435,-41,-80,-1025
277.119,-50,-44,-1005
277.247,-61,213,-949
277.371,-66,517,-834
277.495,-62,784,-662
277.619,-64,881,-514
277.743,-80,949,-377
277.867,-92,964,-264
277.991,-89,993,-142
278.115,-76,1005,-68
278.379,-77,1005,-118
278.503,-85,940,-310
278.631,-70,786,-581
278.755,-65,553,-805
278.879,-52,321,-950
279.003,-48,140,-1008
279.131,-34,38,-1028
279.255,-25,-36,-1025
279.939,-29,-113,-1016
280.063,-30,62,-974
280.187,-22,378,-877
280.311,-37,724,-652
280.435,-41,925,-405
280.559,-48,997,-177
280.683,-36,1024,-65
280.807,-33,1034,-44
280.931,-53,1001,-153
281.055,-82,893,-401
281.179,-104,686,-673
281.303,-94,414,-885
281.427,-70,168,-981
281.551,-52,0,-1018
281.675,-48,-78,-1022
282.499,-46,-74,-1008
282.623,-69,116,-972
282.747,-92,408,-868
282.871,-104,706,-677
282.995,-96,900,-461
283.119,-92,993,-265
283.243,-84,1001,-117
283.371,-82,1006,-4
283.635,-88,1029,-21
283.759,-101,969,-237
283.883,-106,804,-542
284.007,-82,533,-816
284.131,-50,262,-968
284.254,-24,34,-1022
284.378,-12,-94,-1029
285.046,-22,-129,-1022
285.171,-42,14,-1005
285.295,-78,282,-918
285.419,-105,598,-734
285.542,-116,853,-476
285.666,-104,981,-216
285.791,-85,1021,-1
286.055,-66,998,25
286.179,-76,980,-137
286.303,-89,937,-360
286.427,-96,776,-594
286.551,-94,501,-828
286.675,-81,204,-980
286.799,-58,-9,-1017
287.747,-61,-96,-1006
287.871,-80,100,-965
287.995,-94,414,-841
288.118,-98,745,-601
288.242,-82,944,-301
288.367,-73,1014,-33
288.491,-57,1013,121
288.755,-48,1013,116
288.879,-62,992,-25
289.003,-82,964,-209
289.127,-98,882,-444
289.251,-82,697,-672
289.379,-69,404,-870
289.503,-41,102,-976
289.627,-45,-72,-1014
290.591,-62,-52,-1006
290.715,-68,72,-1028
290.839,-84,270,-990
290.962,-88,513,-880
291.087,-89,736,-645
291.211,-72,925,-337
291.335,-70,978,-109
291.74,-73,1009,-50
291.867,-61,944,-282
291.991,-36,721,-580
292.115,1,434,-852
292.239,10,157,-978
292.363,6,2,-1021
292.907,-4,-94,-1030
293.03,-17,61,-994
293.155,-41,349,-873
293.279,-56,676,-654
293.403,-62,901,-430
293.527,-52,988,-221
293.65,-52,1009,-76
293.915,-57,1028,1
294.039,-69,1006,-129
294.163,-64,912,-358
294.286,-66,712,-626
294.411,-46,441,-854
294.535,-30,181,-986
294.658,-17,-18,-1028
295.623,-21,-113,-1017
295.746,-36,-1,-996
295.871,-42,290,-924
295.995,-49,608,-754
296.122,-45,880,-502
296.247,-65,988,-196
296.371,-68,1029,-1
296.639,-76,1037,-12
296.762,-88,984,-222
296.887,-72,800,-516
297.011,-45,564,-792
297.135,-13,317,-950
297.259,-4,120,-1010
297.382,0,-49,-1022
297.527,1,-149,-1014
298.191,-16,-136,-1010
298.315,-32,-20,-1000
298.439,-34,260,-988
298.563,-58,561,-832
298.686,-85,833,-609
298.811,-126,949,-372
298.934,-140,990,-220
299.059,-142,1010,-105
299.322,-142,1020,-48
299.446,-132,946,-265
299.571,-101,700,-577
299.694,-53,388,-854
299.818,-18,94,-989
299.942,-16,-54,-1021
300.61,-20,-154,-1024
300.734,-29,-88,-1028
300.859,-44,73,-1006
300.982,-64,317,-917
301.11,-96,634,-713
301.234,-104,881,-428
301.359,-86,1009,-169
301.482,-50,1026,-6
301.606,-38,1034,14
301.731,-40,990,-157
301.854,-52,778,-456
301.979,-49,485,-782
302.103,-42,166,-964
302.226,-44,-4,-1034
302.895,-65,-41,-1009
303.018,-78,96,-986
303.142,-89,314,-924
303.266,-108,592,-752
303.391,-109,820,-526
303.515,-106,972,-218
303.638,-84,1009,-6
304.043,-68,1034,78
304.166,-80,1037,-92
304.29,-76,948,-352
304.417,-58,706,-653
304.543,-25,354,-877
304.666,-14,65,-992
304.79,-8,-96,-1018
305.614,-48,2,-978
305.739,-82,293,-881
305.863,-126,630,-714
305.986,-146,886,-460
306.11,-132,989,-230
306.234,-113,1033,-72
306.638,-126,1009,-90
306.762,-145,902,-361
306.886,-124,653,-662
307.01,-106,356,-909
307.134,-85,120,-993
307.259,-96,-9,-1036
308.502,-97,56,-972
308.627,-105,382,-828
308.75,-101,713,-642
308.878,-88,958,-397
309.002,-65,993,-196
309.127,-49,1024,13
309.53,-36,1042,92
309.654,-50,1001,-90
309.778,-76,886,-374
309.902,-89,553,-705
310.026,-96,214,-910
310.151,-96,-73,-1004
310.974,-86,-116,-1013
311.098,-80,-2,-1014
311.222,-61,200,-977
311.347,-56,502,-830
311.471,-52,782,-546
311.595,-49,977,-226
311.718,-36,1030,10
312.122,-21,1020,29
312.246,-25,961,-194
312.37,-33,846,-501
312.494,-41,617,-754
312.618,-46,344,-922
312.742,-50,80,-997
312.866,-54,-70,-1020
313.675,-69,-88,-1006
313.798,-82,53,-980
313.922,-105,346,-880
314.046,-109,649,-706
314.17,-114,898,-444
314.294,-98,997,-204
314.42,-82,1026,-16
314.546,-66,1028,74
314.67,-70,1028,80
314.794,-88,1028,-62
314.918,-82,876,-386
315.043,-66,638,-705
315.166,-44,384,-934
315.29,-40,216,-989
315.414,-34,97,-1018
315.538,-37,-4,-1030
316.362,-78,-54,-1010
316.486,-56,264,-942
316.61,-58,618,-754
316.734,-56,910,-473
316.858,-85,993,-204
317.122,-89,1032,-73
317.246,-97,989,-194
317.373,-102,900,-410
317.498,-101,765,-642
317.622,-105,546,-834
317.746,-113,293,-945
317.87,-117,37,-1009
317.994,-105,-100,-1025
318.538,-58,-100,-1018
318.802,-40,25,-980
318.926,-76,285,-884
319.05,-104,602,-714
319.175,-125,868,-481
319.298,-121,968,-260
319.422,-108,1010,-113
319.826,-97,962,-194
319.95,-105,810,-465
320.074,-86,498,-764
320.198,-52,220,-938
320.322,-29,1,-1001
321.146,-58,-16,-978
321.27,-86,266,-905
321.394,-105,590,-750
321.518,-105,872,-506
321.645,-88,973,-248
321.77,-82,1022,-78
321.894,-78,1018,-48
322.018,-98,978,-169
322.182,-105,857,-420
322.266,-93,560,-698
322.39,-62,226,-913
322.515,-49,-26,-996
323.338,-57,-66,-1021
323.462,-66,196,-949
323.586,-62,518,-774
323.71,-53,841,-506
323.834,-33,954,-257
323.958,-28,1005,-102
324.222,-30,1018,-69
324.346,-40,1005,-184
324.47,-61,885,-426
324.594,-64,572,-684
324.718,-68,233,-906
324.842,-52,-21,-994
325.806,-61,45,-918
325.93,-68,344,-700
326.058,-74,698,-421
326.182,-72,937,-162
326.446,-66,1021,-93
326.571,-120,926,-344
326.694,-148,638,-672
326.818,-152,328,-896
326.942,-109,41,-1002
327.066,-88,-46,-1024
327.89,-61,56,-972
328.015,-29,410,-848
328.138,-10,773,-557
328.262,-2,1008,-220
328.386,-14,1017,42
328.65,-20,1014,-17
328.774,-40,888,-285
328.898,-40,553,-656
329.022,-28,214,-910
329.146,-2,-18,-1029
329.55,8,-109,-1024
330.094,-4,-76,-1005
330.218,-24,217,-897
330.345,-53,558,-644
330.47,-76,878,-328
330.594,-78,968,-105
330.718,-66,1050,-64
330.842,-70,993,-274
330.966,-72,656,-609
331.09,-65,237,-917
331.214,-46,-92,-1041
332.178,-38,-81,-994
332.302,-66,245,-924
332.426,-92,613,-740
332.55,-100,934,-482
332.675,-88,1006,-257
332.798,-84,1022,-205
332.922,-100,945,-372
333.046,-86,674,-600
333.17,-58,344,-840
333.294,-21,28,-965
333.418,-12,-102,-1034
334.382,-25,-26,-990
334.506,-34,298,-894
334.63,-41,682,-682
334.758,-41,945,-417
334.906,-34,1014,-182
335.146,-41,990,-217
335.27,-42,724,-490
335.394,-50,374,-784
335.518,-26,57,-956
336.482,-13,-66,-1001
336.606,-37,150,-949
336.73,-60,496,-778
336.854,-93,816,-545
336.978,-97,969,-310
337.242,-98,978,-253
337.366,-104,926,-385
337.49,-94,726,-592
337.614,-86,424,-800
337.738,-77,90,-950
337.862,-76,-86,-1005
338.686,-48,-58,-1029
338.81,-44,149,-966
338.934,-36,526,-726
339.061,-40,834,-401
339.186,-54,1002,-128
339.31,-90,1002,-48
339.434,-105,1004,-145
339.558,-93,990,-305
339.682,-61,798,-544
339.806,-24,497,-765
339.93,-4,134,-933
340.054,-6,-80,-1040
340.178,-17,-125,-1042
340.302,-50,-101,-1057
340.426,-38,-46,-1032
340.83,1,49,-1012
340.954,-14,221,-942
341.078,-45,518,-794
341.24,-89,774,-553
341.326,-141,936,-292
341.45,-173,997,-25
341.714,-201,993,9
341.838,-165,845,-334
341.962,-113,578,-697
342.086,-46,262,-936
342.21,-21,2,-992
342.334,4,-148,-1017
342.878,-30,-145,-998
343.002,-57,81,-968
343.128,-114,456,-785
343.254,-150,816,-488
343.378,-158,980,-117
343.502,-122,998,157
343.766,-57,1005,200
343.89,-29,946,-90
344.014,14,825,-481
344.138,53,566,-806
344.262,66,286,-968
344.387,56,1,-1021
344.51,22,-158,-1021
345.054,-64,-148,-1004
345.178,-66,20,-981
345.302,-77,373,-822
345.426,-86,745,-554
345.55,-85,970,-228
345.675,-81,1013,-12
345.938,-54,1017,-8
346.062,-24,953,-264
346.186,-5,682,-606
346.31,12,345,-868
346.434,9,26,-996
346.558,9,-116,-1017
347.242,-10,-137,-1018
347.402,-22,30,-990
347.494,-21,337,-896
347.618,-24,658,-702
347.742,-28,904,-466
347.866,-44,986,-297
347.99,-45,1017,-280
348.114,-45,904,-452
348.238,-38,681,-678
348.362,-30,372,-888
348.486,-24,120,-977
348.61,-16,-25,-1014
349.434,-16,-10,-1010
349.558,-20,168,-966
349.682,-20,456,-838
349.806,-28,746,-602
349.93,-36,950,-308
350.054,-36,1030,-73
350.178,-28,1032,0
350.302,-16,1033,-88
350.426,-16,985,-306
350.55,-12,806,-574
350.674,-16,517,-824
350.798,-24,209,-972
350.922,-30,6,-1020
351.59,-32,10,-1009
351.714,-28,232,-948
351.838,-17,572,-761
351.962,-9,850,-453
352.086,-4,1005,-144
352.21,8,1028,56
352.334,21,1008,88
352.458,32,1012,12
352.582,29,948,-232
352.706,21,792,-534
352.83,-2,516,-817
352.954,-13,258,-970
353.078,-22,76,-1028
353.202,-13,-25,-1040
353.326,-14,-81,-1029
354.01,-12,-62,-1032
354.134,-20,42,-1018
354.258,-28,248,-952
354.382,-30,518,-777
354.506,-29,797,-476
354.63,-29,962,-214
354.894,-25,1045,-50
355.018,-21,978,-209
355.142,-21,840,-478
355.266,-25,532,-765
355.39,-32,224,-934
355.517,-34,-37,-997
356.622,-48,25,-1009
356.746,-53,224,-976
356.87,-52,509,-870
356.994,-42,758,-648
357.118,-37,949,-366
357.242,-13,1018,-117
357.366,14,1020,41
357.77,28,1006,29
357.894,-5,964,-198
358.018,-36,780,-530
358.142,-65,492,-818
358.266,-88,236,-980
358.39,-108,77,-1044
359.353,-66,-2,-989
359.482,-54,196,-934
359.606,-44,497,-806
359.73,-37,780,-576
359.854,-29,941,-282
359.978,-29,1000,-12
360.246,-16,1010,90
360.37,-9,1021,-72
360.494,-36,892,-420
360.618,-40,610,-744
360.742,-52,293,-980
360.865,-29,86,-1002
360.99,-17,14,-1022
361.813,-62,-61,-1036
361.938,-74,25,-1005
362.062,-76,258,-961
362.186,-69,588,-773
362.31,-58,870,-500
362.433,-53,1008,-164
362.558,-42,1022,53
362.822,-46,1050,10
362.945,-74,949,-280
363.07,-89,632,-629
363.194,-88,284,-908
363.317,-64,-8,-1008
363.441,-37,-100,-1028
364.125,-58,-141,-1008
364.25,-70,-85,-1009
364.378,-92,142,-944
364.501,-80,454,-792
364.625,-92,776,-500
364.75,-82,929,-189
364.873,-66,1005,93
364.998,-28,1001,249
365.122,-12,1022,284
365.245,-12,1006,101
365.37,-30,913,-266
365.497,-58,593,-668
365.621,-86,252,-929
365.746,-98,-9,-1018
366.57,-54,-12,-1013
366.694,-61,202,-957
366.818,-76,561,-700
366.942,-88,861,-336
367.065,-100,1018,4
367.189,-101,1042,80
367.314,-90,989,-129
367.437,-54,789,-446
367.562,-18,510,-778
367.685,8,242,-932
367.81,8,100,-1018
367.933,5,-4,-1016
368.198,-20,-78,-1002
368.589,-21,-20,-1028
368.714,-34,161,-969
368.838,-44,460,-829
368.962,-48,745,-594
369.086,-38,921,-332
369.209,-18,988,-137
369.334,0,1021,-2
369.598,8,1049,-9
369.721,-9,950,-254
369.846,-29,762,-589
369.969,-49,476,-857
370.093,-50,246,-984
370.217,-45,60,-1022
370.341,-38,-49,-1025
370.465,-40,-117,-1017
371.15,-40,-140,-1030
371.274,-56,-40,-1013
371.398,-68,189,-958
371.522,-86,537,-785
371.646,-97,826,-546
371.77,-94,1001,-248
371.894,-74,1018,-54
372.157,-44,1020,20
372.282,-52,986,-176
372.405,-60,805,-500
372.532,-70,528,-816
372.658,-66,218,-978
372.781,-52,42,-1021
373.605,-50,-34,-1018
373.729,-49,128,-988
373.855,-48,406,-922
373.977,-50,696,-721
374.102,-60,904,-469
374.225,-62,1001,-194
374.35,-56,1028,-26
374.474,-50,1016,112
374.597,-54,1001,146
374.722,-69,981,138
374.845,-86,988,52
374.969,-105,993,-97
375.093,-98,985,-344
375.217,-94,768,-644
375.342,-82,453,-869
375.465,-93,137,-992
376.429,-49,53,-1021
376.554,-50,185,-982
376.677,-70,478,-877
376.801,-85,696,-696
376.929,-90,865,-500
377.053,-82,896,-337
377.178,-74,929,-245
377.302,-68,973,-197
377.425,-62,984,-326
377.549,-72,810,-580
377.674,-84,538,-845
377.797,-86,218,-982
377.921,-78,56,-1004
378.045,-72,-44,-1013
378.169,-65,-96,-1021
378.713,-33,-46,-1022
378.837,-41,105,-984
378.961,-46,440,-885
379.086,-78,737,-646
379.21,-113,952,-360
379.334,-137,976,-93
379.458,-132,994,46
379.581,-120,1010,106
379.705,-120,1022,72
379.829,-110,1038,-61
379.953,-86,940,-334
380.077,-66,716,-640
380.201,-54,409,-868
380.326,-45,154,-962
380.449,-32,18,-1002
381.257,-78,-28,-1021
381.382,-96,102,-974
381.505,-110,370,-894
381.629,-117,681,-692
381.753,-113,912,-437
381.877,-100,1001,-168
382.001,-78,998,-9
382.406,-77,1018,4
382.529,-88,1014,-97
382.653,-90,978,-269
382.777,-77,869,-506
382.901,-60,653,-738
383.025,-58,376,-908
383.149,-57,126,-978
383.273,-52,-20,-1010
384.097,-68,-16,-1036
384.222,-84,105,-1016
384.345,-94,353,-918
384.469,-81,648,-696
384.593,-81,902,-382
384.717,-85,1006,-109
384.841,-88,1025,54
385.108,-82,1009,78
385.233,-86,1001,-18
385.358,-82,997,-172
385.482,-82,936,-356
385.605,-65,788,-569
385.729,-68,497,-776
385.854,-60,213,-946
385.977,-76,0,-1024
386.801,-66,-76,-1013
386.926,-64,16,-1012
387.049,-66,244,-953
387.173,-84,562,-758
387.298,-112,844,-432
387.421,-140,986,-128
387.545,-146,1005,48
387.67,-140,1026,76
387.793,-132,1000,-50
387.917,-108,917,-340
388.042,-82,681,-673
388.165,-53,434,-926
388.289,-36,190,-1020
388.413,-26,42,-1045
388.537,-26,-58,-1029
389.221,-52,-90,-1030
389.349,-69,20,-1016
389.474,-113,250,-941
389.597,-149,573,-760
389.721,-168,846,-486
389.845,-177,984,-226
390.25,-161,1008,-100
390.373,-128,946,-273
390.497,-73,706,-576
390.622,-30,405,-841
390.745,-4,144,-994
391.289,-29,-18,-1021
391.413,-52,-46,-988
391.537,-66,25,-972
391.661,-104,289,-889
391.785,-133,601,-722
391.909,-170,861,-456
392.033,-184,956,-222
392.297,-173,1025,-106
392.421,-138,1009,-265
392.545,-73,813,-542
392.669,-22,572,-813
392.793,21,296,-970
392.917,38,146,-1017
393.041,44,24,-1029
393.166,22,-48,-1037
393.673,-37,-30,-996
393.797,-41,165,-949
393.921,-56,456,-817
394.045,-78,746,-613
394.169,-116,896,-377
394.293,-146,965,-229
394.417,-148,981,-193
394.541,-140,964,-317
394.665,-100,750,-517
394.789,-66,473,-776
394.913,-18,184,-928
395.037,1,73,-1024
395.721,-40,-45,-1001
395.845,-76,89,-981
395.969,-116,342,-885
396.093,-154,678,-692
396.217,-176,906,-414
396.341,-178,1005,-168
396.465,-157,1029,-37
396.729,-133,1010,-184
396.853,-109,821,-489
396.977,-90,494,-813
397.101,-61,168,-996
397.225,-52,-10,-1032
397.753,-41,-46,-1022
397.877,-41,61,-1025
398.001,-56,266,-965
398.125,-97,545,-777
398.249,-169,789,-493
398.373,-209,953,-258
398.497,-205,1009,-137
398.901,-137,1002,-128
399.025,-117,965,-272
399.149,-76,773,-513
399.273,-28,464,-784
399.397,5,129,-957
400.205,17,-5,-1026
400.329,5,238,-929
400.453,-9,578,-754
400.577,-44,865,-477
400.701,-61,990,-238
400.965,-74,969,-168
401.089,-64,780,-406
401.213,-40,514,-717
401.337,-4,225,-949
401.461,-4,64,-1028
401.589,-24,-61,-1034
401.713,-48,-128,-1017
402.401,-44,-89,-1002
402.525,-49,98,-972
402.649,-65,417,-902
402.773,-85,672,-725
402.897,-102,870,-500
403.021,-106,949,-298
403.285,-97,1010,-193
403.409,-97,950,-356
403.533,-92,716,-605
403.674,-77,388,-857
403.781,-49,105,-977
403.905,-36,-20,-1010
404.589,-38,9,-1021
404.713,-72,194,-970
404.837,-126,486,-782
404.961,-177,794,-510
405.085,-186,976,-234
405.209,-169,1042,-105
405.473,-136,970,-161
405.597,-96,810,-429
405.721,-70,538,-730
405.845,-18,252,-966
405.969,-17,45,-1017
406.797,-30,-40,-1030
406.921,-38,52,-1012
407.045,-46,238,-972
407.169,-81,505,-828
407.293,-108,749,-636
407.417,-126,926,-362
407.541,-114,988,-201
407.665,-113,1024,-136
407.789,-116,972,-244
407.913,-101,854,-472
408.037,-78,589,-734
408.161,-54,329,-929
408.285,-45,101,-1001
409.109,-24,29,-1004
409.233,-48,166,-952
409.357,-82,424,-826
409.481,-125,684,-652
409.605,-134,889,-432
409.729,-133,981,-258
409.993,-141,952,-314
410.117,-138,748,-556
410.253,-125,457,-830
410.369,-89,218,-977
410.493,-61,97,-1021
411.317,-68,136,-992
411.441,-84,400,-878
411.565,-98,670,-653
411.689,-116,888,-392
411.817,-122,954,-182
411.941,-128,1012,-56
412.065,-121,1036,-44
412.189,-129,953,-220
412.313,-120,713,-526
412.437,-85,396,-828
412.561,-48,148,-982
413.665,-18,32,-1024
413.789,-20,164,-994
413.913,-37,369,-914
414.037,-76,634,-756
414.161,-122,877,-489
414.285,-144,1014,-236
414.549,-164,960,-238
414.673,-166,678,-542
414.801,-149,341,-857
414.925,-105,69,-1013
415.889,-68,73,-1018
416.013,-85,253,-954
416.137,-69,560,-793
416.261,-33,813,-536
416.385,-1,994,-262
416.509,9,1022,-105
416.633,18,1028,-78
416.757,21,992,-176
416.881,17,924,-349
417.006,28,764,-556
417.129,24,508,-786
417.253,26,232,-946
417.377,9,20,-1026
418.201,1,-26,-1052
418.325,-2,129,-1029
418.449,8,373,-966
418.573,4,660,-752
418.697,-5,873,-513
418.821,-29,996,-246
418.945,-40,1017,-70
419.193,-28,1026,-44
419.317,-37,964,-301
419.441,-50,633,-618
419.565,-36,280,-898
420.389,-40,81,-1024
420.513,-25,281,-965
420.637,-34,590,-769
420.761,-37,854,-458
420.885,-73,994,-130
421.009,-65,1008,68
421.133,-62,1041,108
421.257,-64,978,-116
421.381,-65,734,-468
421.505,-50,398,-813
421.629,0,104,-1000
421.753,29,2,-1046
421.877,32,-17,-1053
422.421,-46,-24,-1045
422.545,-48,189,-989
422.669,-25,472,-836
422.793,-33,800,-557
422.917,-46,950,-280
423.041,-78,1025,-82
423.165,-82,1040,-62
423.293,-104,978,-224
423.417,-106,788,-517
423.541,-77,476,-828
423.665,-30,173,-988
423.789,2,1,-1045
423.913,-4,-58,-1050
424.457,-78,22,-1028
424.581,-93,210,-977
424.705,-101,533,-812
424.829,-97,854,-489
424.953,-88,1016,-188
425.217,-92,1022,-90
425.341,-117,898,-366
425.465,-129,580,-709
425.589,-110,234,-948
426.413,-46,112,-1026
426.537,-60,264,-978
426.661,-74,510,-873
426.785,-105,714,-661
426.909,-132,874,-420
427.033,-160,934,-193
427.297,-164,929,-236
427.421,-118,673,-542
427.547,-90,392,-834
427.673,-42,112,-997
427.797,-30,2,-1016
428.481,-38,-6,-1016
428.605,-58,138,-976
428.729,-85,420,-849
428.853,-117,689,-676
428.977,-172,882,-445
429.101,-208,952,-292
429.365,-184,962,-298
429.489,-113,812,-504
429.613,-41,550,-753
429.737,32,253,-945
429.861,64,30,-1013
429.985,88,-90,-1029
430.529,33,-38,-1028
430.653,29,157,-992
430.777,36,473,-866
430.901,9,784,-629
431.025,-25,972,-321
431.149,-68,1025,-44
431.273,-65,994,154
431.537,-42,969,106
431.661,-49,942,-125
431.789,-54,728,-496
431.913,-46,468,-800
432.037,-29,178,-1012
432.161,-16,45,-1049
432.285,10,4,-894
432.409,6,-5,-868
432.533,10,16,-893
432.657,17,8,-1005
432.781,48,58,-1041
432.905,38,212,-1048
433.029,-18,452,-1077
433.153,-72,693,-924
433.277,-61,798,-660
433.401,-28,828,-358
433.525,-2,822,-156
433.653,-37,874,-49
433.917,-62,909,13
434.041,-69,936,-53
434.165,-33,921,-177
434.289,25,836,-421
434.413,60,584,-694
434.537,13,361,-961
434.661,-29,174,-1110
434.785,-22,62,-1125
434.909,-8,-25,-1086
435.86,1,-98,-1056
435.985,-13,-20,-1145
436.109,-50,192,-1153
436.233,-92,473,-1040
436.357,-96,754,-664
436.481,-61,864,-326
436.605,-44,908,-52
436.729,-4,868,50
436.853,5,893,124
437.117,12,893,130
437.24,13,889,-32
437.364,16,898,-260
437.489,-10,840,-561
437.612,6,684,-705
437.736,29,468,-854
437.861,24,285,-948
437.985,-26,188,-1081
438.109,-62,114,-1125
438.233,-41,48,-1084
438.357,-25,-30,-1062
439.041,-44,-57,-1048
439.165,-41,52,-1073
439.288,-54,221,-1118
439.412,-65,428,-1116
439.537,-65,604,-974
439.661,-30,738,-726
439.785,-21,810,-473
439.913,-4,854,-300
440.036,-8,876,-193
440.16,2,918,-81
440.284,-2,948,32
440.548,-22,962,78
440.672,13,914,-88
440.797,21,849,-334
440.92,26,701,-613
441.045,13,513,-800
441.169,1,326,-978
441.292,-24,228,-1078
441.417,-41,182,-1142
441.541,-24,102,-1105
441.665,13,17,-1060
441.789,-2,-52,-1048
442.473,-10,-70,-1074
442.596,-80,77,-1149
442.721,-160,333,-1121
442.844,-241,654,-926
442.968,-192,796,-588
443.092,-110,825,-273
443.216,-62,802,-46
443.341,-60,840,118
443.464,-48,885,190
443.588,-17,926,212
443.853,-21,926,121
443.981,-17,876,-57
444.105,-52,858,-310
444.229,-26,738,-570
444.353,-72,586,-848
444.477,-22,361,-1010
444.6,-49,142,-1117
445.565,-44,-58,-1072
445.688,-60,45,-1113
445.812,-65,244,-1110
445.936,-100,513,-1013
446.061,-89,704,-796
446.184,-70,797,-520
446.309,-29,826,-253
446.433,-34,884,-50
446.556,-42,940,64
446.82,-45,1002,86
447.085,-44,998,30
447.209,-53,930,45
447.332,-62,878,-26
447.457,-81,833,-214
447.581,-81,826,-448
447.705,-101,770,-700
447.828,-88,622,-834
447.953,-68,454,-949
448.08,-40,222,-970
448.205,-78,108,-1037
448.469,-90,-36,-1088
449.152,-46,-54,-1064
449.312,-72,41,-1222
449.401,-101,317,-1201
449.525,-121,565,-1032
449.648,-84,728,-632
449.772,-49,749,-317
449.897,-22,792,-89
450.02,-24,868,6
450.145,-22,920,50
450.269,-34,958,34
450.392,-22,926,-21
450.516,-14,862,-176
450.641,5,789,-401
450.765,17,664,-622
450.888,18,492,-833
451.012,37,266,-974
451.136,-20,90,-1141
451.26,-10,-12,-1169
451.385,-16,-65,-1156
452.068,-33,30,-1108
452.193,-60,225,-1149
452.32,-100,520,-1041
452.444,-106,744,-756
452.569,-92,838,-422
452.692,-84,872,-164
452.816,-76,878,-4
452.94,-61,921,92
453.064,-40,949,113
453.468,-36,964,33
453.593,-34,929,-68
453.716,-52,844,-217
453.84,-73,704,-428
453.964,-92,548,-701
454.089,-90,352,-941
454.212,-78,221,-1090
454.336,-82,104,-1144
454.46,-57,58,-1132
454.584,-37,20,-1104
455.269,-41,81,-1117
455.392,-96,240,-1141
455.516,-206,545,-1005
455.651,-209,734,-674
455.764,-169,878,-309
455.888,-84,880,-28
456.012,-76,882,101
456.137,-70,894,180
456.26,-68,938,192
456.389,-72,990,165
456.652,-74,966,58
456.776,-85,930,-46
456.901,-108,884,-224
457.024,-113,761,-458
457.148,-148,608,-722
457.272,-100,404,-906
457.396,-101,273,-1050
457.52,-57,138,-1098
457.644,-66,45,-1129
457.769,-32,-30,-1100
458.732,-104,81,-1124
458.856,-144,328,-1076
458.981,-173,606,-905
459.104,-120,778,-570
459.229,-53,858,-257
459.353,-24,898,-14
459.477,-29,925,128
459.741,-30,954,164
459.865,-16,932,88
459.988,-32,869,-89
460.112,-45,778,-290
460.236,-85,666,-497
460.361,-80,522,-734
460.487,-24,256,-678
460.612,-5,81,-838
460.736,-21,-64,-860
460.861,-66,-84,-1101
460.985,-81,-110,-1085
461.528,-42,-45,-1081
461.652,-65,17,-1148
461.777,-72,201,-1170
461.901,-90,425,-1022
462.027,-93,666,-700
462.148,-109,789,-362
462.272,-105,888,-68
462.396,-34,882,101
462.52,10,914,186
462.645,37,929,172
462.768,10,945,100
462.892,-6,918,-34
463.016,-18,797,-262
463.14,-46,632,-574
463.265,-49,414,-846
463.388,-76,242,-1032
463.513,-76,94,-1126
463.637,-86,-10,-1145
463.76,-70,-77,-1128
463.885,-46,-88,-1066
464.272,-70,-28,-1052
464.396,-96,64,-1144
464.525,-100,244,-1154
464.648,-114,469,-1002
464.772,-98,677,-678
464.896,-85,810,-346
465.02,-81,854,-106
465.145,-89,893,48
465.269,-85,909,122
465.392,-73,965,124
465.516,-64,998,77
465.78,-42,945,-28
465.905,-21,904,-106
466.028,-20,789,-281
466.152,-41,653,-562
466.276,-13,321,-928
466.4,4,76,-1157
466.524,66,-102,-1197
466.648,20,-146,-1113
466.772,-14,-153,-1052
467.176,-40,-76,-1082
467.3,-100,33,-1166
467.424,-125,169,-1182
467.548,-181,414,-1017
467.672,-138,600,-726
467.796,-100,766,-397
467.92,-40,842,-150
468.044,-30,921,5
468.168,-30,965,98
468.435,-40,957,77
468.561,-38,924,-26
468.684,-58,878,-174
468.808,-80,834,-346
468.932,-101,714,-570
469.056,-86,493,-824
469.18,-40,229,-1017
469.304,16,-6,-1101
469.568,33,-130,-1081
469.832,-28,-94,-1069
470.236,-93,-53,-1138
470.36,-150,113,-1212
470.484,-197,405,-1092
470.608,-164,665,-678
470.732,-112,796,-241
470.856,-64,809,42
470.98,-66,866,112
471.104,-68,930,129
471.229,-41,920,53
471.352,-32,865,-109
471.476,-9,762,-364
471.6,-61,684,-641
471.724,-33,522,-888
471.852,-36,313,-1068
471.976,22,149,-1126
472.1,0,48,-1124
472.888,-6,4,-1089
473.012,-24,108,-1168
473.136,-48,317,-1132
473.26,-73,546,-912
473.384,-44,708,-545
473.508,-61,822,-225
473.632,-77,874,-38
473.756,-128,950,81
473.88,-108,949,165
474.004,-110,964,213
474.269,-104,937,53
474.392,-96,918,-150
474.516,-68,818,-493
474.64,-57,653,-770
474.764,0,437,-934
474.888,-25,265,-1045
475.012,14,129,-1052
475.136,-20,33,-1108
475.82,-42,36,-1124
475.945,-97,145,-1241
476.068,-61,378,-1149
476.193,-72,600,-864
476.316,-33,725,-449
476.44,-120,793,-178
476.564,-121,840,32
477.112,-76,940,126
477.236,-58,900,38
477.36,-90,884,-114
477.484,-116,810,-378
477.608,-134,666,-700
477.732,-56,406,-948
477.856,2,218,-1102
477.98,36,76,-1146
478.104,24,16,-1164
478.228,28,-28,-1105
478.912,-46,60,-1226
479.036,-76,221,-1314
479.16,-114,446,-1201
479.284,-81,610,-784
479.409,-93,716,-374
479.532,-82,757,-117
479.656,-93,824,16
479.78,-82,881,69
479.904,-81,932,48
480.028,-80,916,-13
480.152,-94,906,-140
480.276,-105,872,-253
480.4,-130,817,-430
480.524,-134,673,-645
480.648,-101,461,-892
480.776,-85,288,-1086
480.9,-64,169,-1173
481.024,-42,88,-1169
481.148,12,0,-1140
481.272,58,-65,-1030
481.396,40,-73,-1014
481.52,20,-82,-982
481.784,-1,-81,-1037
481.908,-9,17,-1117
482.032,-53,237,-1214
482.156,-58,452,-1134
482.28,-73,644,-885
482.404,-57,734,-492
482.528,-80,812,-242
482.652,-89,862,-66
482.776,-92,906,-20
483.04,-56,917,-72
483.164,-16,862,-204
483.288,40,782,-401
483.412,-12,661,-642
483.536,-8,482,-809
483.66,-41,292,-1018
483.784,18,130,-1124
483.908,32,13,-1181
484.033,42,-58,-1121
484.716,-37,-64,-1076
484.845,-52,58,-1141
484.968,-102,349,-1106
485.092,-140,624,-918
485.216,-140,786,-577
485.34,-69,770,-284
485.465,-76,804,-101
485.588,-104,882,-26
485.712,-136,974,-8
485.976,-81,974,-46
486.1,-66,893,-129
486.224,-58,776,-308
486.348,-52,665,-521
486.473,-106,521,-749
486.596,-105,346,-893
486.72,-109,144,-1037
486.844,-38,-9,-1092
487.232,-28,-85,-1057
487.356,-9,-113,-1049
488.04,-29,64,-1138
488.164,-92,372,-1117
488.288,-193,674,-1014
488.413,-230,817,-644
488.536,-166,788,-332
488.66,-105,810,-46
488.784,-81,874,73
488.91,-96,962,160
489.316,-46,924,110
489.44,-76,948,-9
489.564,-61,941,-182
489.688,-62,873,-428
489.812,41,625,-618
489.936,9,381,-906
490.06,8,197,-1060
490.184,-41,122,-1172
490.308,9,57,-1112
490.572,20,-9,-1037
490.696,-25,-13,-1034
491.38,-50,20,-1032
491.504,-49,169,-1134
491.628,-62,396,-1161
491.752,-101,630,-1056
491.876,-98,729,-790
492.0,-84,789,-522
492.124,-82,837,-350
492.248,-89,898,-217
492.373,-92,917,-116
492.496,-50,913,52
492.62,-41,909,198
492.744,-49,937,277
492.868,-80,965,232
492.995,-106,984,174
493.12,-116,952,60
493.244,-96,881,-121
493.368,-49,812,-402
493.492,-12,682,-669
493.616,28,516,-913
493.74,33,308,-1032
493.864,44,192,-1153
493.988,37,136,-1130
494.112,25,122,-1130
494.236,13,42,-1065
494.36,-6,-13,-1044
494.484,-8,-86,-1016
494.608,-8,-77,-1022
495.173,-13,-64,-1081
495.276,9,16,-1225
495.4,2,189,-1229
495.524,-50,445,-1056
495.648,-136,678,-636
495.772,-161,826,-232
495.896,-106,858,57
496.02,-57,888,216
496.144,-62,922,285
496.268,-70,925,297
496.393,-84,913,234
496.516,-78,893,48
496.64,-48,857,-273
496.764,-30,748,-610
496.89,-25,529,-932
497.016,-37,206,-1020
497.14,-54,-25,-1088
497.404,34,-192,-1178
497.528,36,-184,-1137
497.652,56,-160,-1138
498.04,-4,-116,-1064
498.164,-21,14,-1210
498.288,-22,225,-1269
498.412,-41,492,-1097
498.536,-41,645,-706
498.66,-49,745,-329
498.784,-54,774,-90
498.908,-65,840,48
499.032,-78,900,162
499.296,-94,976,148
499.42,-77,926,57
499.546,-53,854,-97
499.668,-25,754,-321
499.792,-21,662,-654
499.916,-29,521,-853
500.04,-50,310,-986
500.164,-74,90,-1105
500.288,-76,-84,-1226
500.412,-50,-106,-1254
500.536,-40,-57,-1094
501.065,-24,50,-1073
501.189,-54,130,-1196
501.312,-66,237,-1232
501.436,-90,357,-1110
501.56,-93,522,-734
501.684,-117,700,-373
501.808,-112,822,-49
501.932,-64,917,94
502.056,-41,976,164
502.18,-36,985,140
502.444,-49,926,-74
502.568,-41,784,-401
502.692,20,517,-826
502.816,36,306,-1057
502.94,70,184,-1098
503.064,50,205,-1014
503.328,0,180,-1016
503.452,-13,130,-1064
503.576,-29,92,-1088
503.7,-20,14,-1080
503.964,-16,-97,-1048
504.788,9,-182,-1082
504.912,29,-133,-1105
505.036,34,41,-1108
505.164,36,258,-992
505.288,14,520,-766
505.412,-22,708,-444
505.537,-56,889,-158
505.66,-86,949,32
506.204,-78,1008,80
506.328,-53,989,72
506.452,-4,970,-18
506.576,13,881,-173
506.7,36,788,-422
506.824,20,585,-586
506.948,38,509,-797
507.072,44,398,-920
507.196,57,268,-929
507.32,24,178,-938
507.444,6,144,-948
507.568,-5,214,-1046
507.832,-17,186,-1105
507.956,-12,245,-1220
508.08,-21,398,-1176
508.204,-18,593,-897
508.328,-37,734,-473
508.452,-50,808,-140
508.576,-62,838,34
508.84,-45,858,-104
508.964,-40,804,-373
509.088,-45,557,-670
509.216,-72,350,-901
509.34,-105,-149,-1096
509.464,-94,-222,-1228
509.588,-53,-217,-1260
509.712,-2,61,-1192
509.836,13,80,-1137
509.96,-18,56,-1065
510.083,-50,72,-1069
510.208,-48,122,-1037
510.332,-29,114,-1014
510.456,38,133,-1020
510.58,25,104,-1004
510.704,34,168,-1062
510.828,30,217,-1212
510.952,54,418,-1245
511.076,73,581,-1036
511.2,5,701,-565
511.323,-2,757,-221
511.448,2,773,4
511.572,40,821,174
511.696,8,853,237
511.82,-73,920,225
511.944,-106,952,86
512.068,-86,960,-32
512.192,-40,969,-122
512.316,-5,974,-181
512.44,10,876,-298
512.564,-4,664,-524
512.687,33,469,-706
512.812,25,301,-869
512.939,78,181,-985
513.064,32,60,-1160
515.456,40,-26,-1202
515.461,26,-78,-1174
515.463,37,-93,-1092
515.464,4,-66,-1101
515.465,-14,53,-1222
515.466,6,222,-1258
515.466,69,397,-1110
515.467,29,561,-777
515.468,-12,698,-508
515.47,-70,837,-317
515.471,-32,897,-185
515.472,-58,937,-81
515.472,-78,958,0
515.473,-98,982,37
515.474,-70,972,48
515.672,72,457,-922
515.796,77,342,-981
515.92,82,241,-1020
516.044,108,170,-1009
516.168,106,128,-989
516.292,129,52,-1005
516.418,113,22,-1029
516.948,89,-18,-1094
517.072,120,30,-1205
517.196,104,153,-1228
517.319,97,337,-1046
517.443,50,522,-716
517.567,6,720,-349
517.692,1,828,-137
517.816,-45,928,-5
517.939,-32,946,17
518.343,-108,1010,38
518.471,-137,1000,65
518.595,-128,961,60
518.72,-61,914,-16
518.844,-1,828,-237
518.968,32,669,-493
519.092,41,450,-732
519.216,18,238,-940
519.339,6,82,-1097
519.464,-4,-38,-1193
519.587,-13,-114,-1166
519.712,-24,-158,-1101
520.395,-12,-84,-1132
520.519,-52,105,-1233
520.644,-50,321,-1161
520.767,-60,530,-858
520.895,-64,680,-481
521.019,-81,797,-186
521.143,-105,865,16
521.267,-104,904,128
521.671,-116,933,101
521.795,-53,864,-48
521.92,17,760,-286
522.044,54,596,-581
522.167,-1,392,-885
522.291,20,161,-1102
522.416,72,17,-1198
522.539,128,-101,-1149
522.664,84,-120,-1094
522.787,9,-122,-1062
523.331,-36,-41,-1104
523.455,-37,45,-1214
523.58,-30,238,-1213
523.703,-9,442,-1074
523.828,48,588,-816
523.951,57,662,-558
524.075,-24,769,-302
524.2,-94,860,-54
524.324,-124,924,96
524.727,-69,888,90
524.852,-22,816,-112
524.978,28,696,-422
525.104,17,570,-754
525.227,6,354,-969
525.351,6,198,-1074
525.475,68,41,-1110
525.599,82,-85,-1156
525.724,98,-126,-1098
525.848,74,-160,-1053
525.971,96,-141,-994
526.095,90,-214,-1014
526.219,77,-232,-1018
526.343,46,-233,-1029
526.468,41,-200,-1049
526.592,46,-150,-1102
526.715,105,-58,-1150
526.839,121,81,-1156
526.963,144,260,-1064
527.088,108,488,-813
527.211,49,690,-498
527.336,33,817,-188
527.46,14,865,0
527.583,-9,901,54
527.707,-58,934,41
527.971,-73,906,-48
528.096,-49,858,-174
528.219,-68,796,-398
528.343,-17,669,-637
528.467,-17,453,-917
528.591,44,205,-1088
528.715,77,-29,-1194
528.844,98,-130,-1086
528.967,44,-140,-1076
529.092,-41,-125,-1050
529.215,-92,-116,-1092
530.179,-34,-134,-1030
530.583,-13,-25,-1117
530.707,57,58,-1218
530.832,68,292,-1193
530.955,100,489,-978
531.079,-46,726,-625
531.203,-140,865,-281
531.328,-192,912,-10
531.451,-216,925,170
531.575,-210,897,252
531.699,-213,928,237
531.823,-182,934,176
531.947,-161,932,70
532.072,-65,902,-45
532.196,28,898,-150
532.319,52,844,-250
532.444,-61,820,-413
532.568,-110,677,-614
532.691,-140,556,-861
532.815,-81,394,-988
532.943,-64,254,-1092
533.067,-41,185,-1109
533.191,-100,112,-1200
533.32,-94,100,-1144
533.439,-58,38,-1121
533.564,28,-8,-1024
533.687,49,-48,-1030
534.651,113,-30,-1164
534.775,89,108,-1214
534.899,62,333,-1146
535.024,6,550,-873
535.148,-48,713,-496
535.271,-86,821,-233
535.395,-98,889,-58
535.519,-97,930,1
535.643,-110,938,82
535.767,-122,934,133
535.892,-118,908,126
536.015,-105,873,-1
536.14,-100,828,-317
536.263,-49,712,-596
536.387,-17,525,-794
536.511,-10,366,-934
536.635,-50,213,-1102
536.76,-18,109,-1216
536.884,25,14,-1181
537.01,26,4,-1112
537.275,-4,-17,-1053
537.539,32,-125,-1030
538.083,0,-193,-1082
538.207,-10,-72,-1181
538.331,-44,120,-1184
538.455,-93,369,-1045
538.579,-90,584,-785
538.704,-66,720,-506
538.828,-44,820,-204
538.951,-69,864,9
539.075,-94,917,106
539.2,-106,928,93
539.323,-96,930,20
539.447,-76,872,-140
539.571,-46,776,-377
539.696,-34,640,-630
539.819,-73,521,-862
539.944,-156,580,-1046
540.067,-142,500,-1140
540.192,-96,373,-1125
540.315,-16,85,-1069
540.439,-24,-41,-1024
540.704,-21,-129,-988
540.828,-16,-134,-998
541.495,12,-64,-1077
541.62,8,-48,-1153
541.743,1,17,-1205
541.867,-18,113,-1082
541.992,-2,381,-864
542.157,13,621,-522
542.239,21,834,-250
542.363,1,862,-49
542.488,-32,914,18
542.611,-66,958,45
543.155,-46,962,44
543.28,-32,900,-100
543.403,-14,754,-352
543.527,-46,622,-640
543.651,-88,445,-914
543.775,-101,324,-997
543.899,-76,174,-1094
544.023,-53,98,-1096
544.147,-32,49,-1096
544.411,-8,6,-1010
544.535,-18,-16,-1042
545.623,32,46,-1112
545.747,56,240,-1150
545.871,61,472,-1154
545.995,26,649,-902
546.119,-14,741,-518
546.243,-45,806,-120
546.367,-80,856,129
546.491,-96,914,198
546.755,-92,909,149
546.879,-81,862,-66
547.003,-76,821,-353
547.127,-98,749,-666
547.251,-86,562,-886
547.375,-69,330,-1016
547.499,-34,109,-1085
547.623,-49,-5,-1114
547.887,-78,-76,-1104
548.011,-72,-114,-1052
548.135,-70,-81,-1042
548.259,-30,-80,-1037
548.384,8,-32,-1040
548.647,54,32,-1093
548.773,66,112,-1212
548.895,60,277,-1200
549.019,24,504,-1012
549.143,-45,704,-637
549.267,-90,821,-290
549.391,-110,846,4
549.519,-112,889,166
549.643,-118,941,226
549.767,-109,945,200
549.891,-86,896,161
550.015,-60,832,-65
550.139,-73,777,-334
550.263,-84,678,-708
550.387,-81,520,-904
550.511,-36,317,-1026
550.635,-20,138,-1041
550.759,-22,-14,-1073
551.023,-32,-101,-1096
551.567,-5,-49,-1088
551.695,17,48,-1160
551.819,62,209,-1190
551.943,73,462,-1029
552.067,25,649,-657
552.191,-65,793,-256
552.315,-108,849,24
552.439,-122,892,154
552.703,-84,902,130
552.827,-52,849,-113
552.951,-42,721,-420
553.075,-34,558,-740
553.199,-20,416,-948
553.323,-14,257,-1094
553.447,-10,108,-1121
553.575,-14,-8,-1093
553.979,-5,-54,-1024
554.523,-24,14,-1086
554.647,-16,154,-1128
554.771,14,341,-1157
554.895,45,544,-1020
555.019,34,692,-740
555.143,-9,824,-381
555.267,-48,890,-73
555.531,-38,868,197
555.655,-50,874,237
555.779,-61,869,257
555.903,-82,864,168
556.027,-89,849,0
556.151,-124,805,-266
556.275,-164,657,-552
556.399,-170,448,-816
556.523,-134,270,-989
556.647,-81,109,-1092
556.771,-21,12,-1137
556.895,-8,-53,-1084
557.019,8,-56,-1045
557.283,12,-65,-1017
557.407,-5,-44,-992
557.531,-10,-6,-1022
557.659,-16,24,-1028
557.783,5,89,-1118
557.907,118,152,-1229
558.031,182,254,-1229
558.155,202,401,-1004
558.279,109,546,-594
558.403,44,704,-221
558.527,0,778,36
558.651,-58,842,197
558.775,-104,893,266
559.039,-113,938,182
559.163,-104,882,89
559.288,-77,818,-94
559.411,-102,809,-322
559.535,-93,748,-621
559.659,-100,526,-888
559.783,-105,245,-1108
559.907,-108,-5,-1157
560.031,-165,-245,-1265
560.155,-150,-284,-1153
560.279,-141,-266,-1112
560.403,-65,-93,-954
560.527,-26,-70,-985
560.931,-17,-30,-1034
561.195,-41,-8,-1160
561.319,-74,161,-1218
561.443,-84,393,-1148
561.57,-86,658,-813
561.699,-54,718,-413
561.823,-62,785,-81
561.947,-73,816,80
562.071,-82,892,184
562.195,-77,926,208
562.319,-53,894,170
562.443,-48,845,84
562.567,-60,833,-41
562.691,-88,868,-254
562.815,-142,896,-448
562.939,-124,746,-680
563.063,-146,512,-937
563.187,-132,208,-1109
563.311,-189,-26,-1198
563.435,-128,-101,-1040
563.839,-72,-70,-1034
564.523,1,40,-1046
564.647,-25,144,-1141
564.772,-40,354,-1168
564.895,-41,522,-1125
565.019,-30,674,-838
565.143,-20,728,-530
565.267,-26,800,-190
565.391,-33,832,8
565.515,-62,897,120
565.643,-80,934,162
565.907,-64,950,186
566.031,-45,865,128
566.155,-22,790,-114
566.279,-41,686,-429
566.403,-57,608,-772
566.527,-58,426,-1008
566.651,-30,269,-1121
566.775,-18,100,-1180
566.899,-53,0,-1201
567.023,-21,-42,-1124
567.147,12,-46,-1096
568.375,-32,4,-1049
568.499,-21,53,-1166
568.623,5,254,-1290
568.747,-1,465,-1252
568.872,-41,669,-969
568.995,-73,750,-538
569.119,-80,782,-209
569.243,-64,832,45
569.367,-74,886,160
569.631,-76,888,209
569.755,-81,842,50
569.881,-76,788,-146
570.007,-162,713,-452
570.131,-166,489,-781
570.255,-160,276,-1102
570.379,-90,78,-1253
570.503,-78,18,-1142
570.627,-54,-29,-1072
570.751,-4,-68,-1036
571.015,54,-73,-1057
571.543,-38,90,-1065
571.667,-56,180,-1094
571.791,-90,372,-1204
571.915,-94,509,-1132
572.039,-92,644,-878
572.163,-50,672,-476
572.287,-37,753,-109
572.411,-30,812,108
572.536,-50,869,280
572.659,-57,897,316
572.783,-62,901,265
572.907,-57,830,114
573.031,-40,860,-60
573.155,-34,910,-298
573.279,-45,909,-514
573.403,-78,697,-794
573.527,-104,294,-1010
573.651,-97,58,-1113
573.775,-97,-85,-1128
573.903,-14,-110,-1098
574.027,-2,-105,-1090
574.151,22,-108,-1045
574.275,-25,-22,-1005
574.539,-10,1,-1069
574.663,-21,54,-1184
574.787,-72,272,-1210
574.911,-122,544,-1016
575.035,-124,780,-637
575.159,-90,832,-316
575.283,-82,822,-97
575.407,-92,796,26
575.531,-96,845,156
575.655,-102,909,228
575.919,-80,902,146
576.043,-58,841,-30
576.167,-25,733,-312
576.291,1,564,-632
576.415,16,349,-962
576.539,41,138,-1121
576.663,8,29,-1173
576.787,-10,-30,-1148
576.911,-16,-61,-1126
577.035,-5,-73,-1084
577.439,13,-49,-1064
577.563,-29,76,-1262
577.687,-173,372,-1304
577.815,-252,618,-1050
577.939,-302,781,-668
578.063,-201,772,-314
578.187,-140,800,-125
578.311,-80,857,81
578.435,-60,913,160
578.559,-37,965,130
578.683,-20,988,66
578.807,-8,938,4
578.931,-4,881,-93
579.055,-41,838,-308
579.183,0,714,-541
579.307,-1,476,-870
579.431,69,126,-1049
579.555,25,-24,-1182
579.679,29,-104,-1109
579.803,-20,-84,-1065
579.927,-25,-105,-1038
580.051,-24,-110,-1040
580.755,-10,26,-1178
580.859,-24,182,-1250
580.983,-41,360,-1258
581.107,-30,493,-946
581.231,-14,596,-645
581.355,0,702,-296
581.479,-38,846,-121
581.603,-70,938,44
582.271,-54,956,108
582.395,-48,920,49
582.519,-36,789,-145
582.643,-37,669,-425
582.767,-61,554,-714
582.891,-32,433,-929
583.015,-21,305,-1072
583.139,-25,173,-1170
583.403,-61,98,-1154
583.527,-6,62,-1084
583.651,30,38,-1030
584.055,-40,124,-1190
584.179,-78,301,-1309
584.303,-90,476,-1284
584.427,-45,581,-952
584.551,-30,638,-550
584.675,-37,710,-201
584.799,-64,822,5
584.923,-76,909,101
585.047,-94,977,105
585.311,-86,957,34
585.435,-54,869,-96
585.559,-42,742,-364
585.683,9,620,-626
585.806,32,441,-880
585.935,81,220,-1006
586.059,65,13,-1177
586.183,62,-53,-1154
586.307,32,-20,-1136
586.991,17,73,-1092
587.115,-53,282,-1216
587.239,-65,460,-1166
587.363,-64,632,-888
587.487,-10,657,-456
587.611,-41,758,-172
587.735,-78,833,-40
587.859,-105,924,-1
588.123,-82,988,8
588.247,-81,994,36
588.651,-72,1001,45
588.774,-34,925,-64
588.899,-17,817,-306
589.023,58,618,-550
589.147,52,386,-805
589.271,66,212,-938
589.395,32,106,-1038
589.518,38,53,-1064
589.643,37,-14,-1081
589.767,61,-28,-1088
589.891,50,6,-1094
590.139,-20,100,-1058
590.263,-50,121,-1028
590.387,-46,101,-1006
590.931,5,120,-1037
591.055,10,240,-1238
591.179,34,409,-1260
591.303,13,548,-1106
591.427,-6,649,-645
591.551,-34,726,-321
591.675,-45,778,-126
591.799,-44,861,-81
591.922,-50,944,-30
592.187,-29,1010,22
592.45,-14,957,36
592.575,-20,972,20
592.699,-56,980,-157
592.823,-100,926,-370
592.947,-104,729,-646
593.071,-110,505,-854
593.195,-98,362,-1036
593.319,-106,282,-1144
593.442,-121,232,-1184
593.567,-152,156,-1164
593.691,-149,84,-1138
593.815,-88,5,-1084
593.939,-32,-54,-1045
594.327,-12,-42,-1082
594.45,-28,-8,-1130
594.574,-24,62,-1184
594.699,-38,198,-1186
594.823,-49,396,-1084
594.947,-72,608,-793
595.071,-100,714,-453
595.195,-56,777,-102
595.319,-58,861,62
595.443,-40,985,162
595.567,-44,1014,160
595.971,-30,1012,142
596.095,-14,1008,82
596.219,-10,906,-88
596.343,-12,778,-386
596.467,2,601,-624
596.591,-8,425,-832
596.715,-49,277,-917
596.838,-73,149,-1128
596.962,-64,86,-1190
597.087,-13,10,-1186
597.21,-2,-37,-1074
597.334,-1,-24,-1061
597.459,-17,40,-1116
597.582,-30,213,-1194
597.706,-50,434,-1117
597.831,-89,664,-846
597.955,-108,764,-465
598.082,-114,774,-142
598.207,-101,781,52
598.331,-98,858,176
598.595,-88,945,156
598.718,-66,862,-52
598.843,-49,764,-352
598.966,-4,644,-654
599.091,-4,562,-862
599.216,21,394,-972
599.339,4,216,-1078
599.462,26,4,-1098
599.586,21,-117,-1105
599.99,21,-126,-1109
600.114,17,86,-1186
600.238,8,406,-1126
600.362,-26,677,-790
600.486,-64,758,-337
600.611,-108,777,24
600.734,-113,830,197
600.858,-112,913,234
600.982,-84,978,204
601.247,-38,962,142
601.37,-33,872,89
601.494,-32,826,-52
601.619,-24,809,-380
601.743,-28,686,-700
601.866,-8,442,-874
601.993,-6,150,-988
602.118,-2,-28,-1048
602.242,-34,-113,-1129
602.367,-46,-133,-1070
602.63,-33,-142,-1034
602.754,-38,-121,-1150
602.878,-40,-26,-1312
603.003,-18,198,-1248
603.126,2,442,-929
603.25,1,668,-448
603.375,-41,758,-80
603.499,-74,806,145
603.622,-90,822,265
603.746,-88,865,282
604.011,-96,946,248
604.134,-80,917,168
604.259,-61,914,61
604.382,-9,868,-32
604.506,-66,810,-109
604.63,-126,689,-428
604.755,-188,534,-685
604.878,-145,273,-1014
605.002,-92,85,-1108
605.13,-64,-54,-1216
605.254,-60,-40,-1157
605.378,-56,-72,-1080
606.045,-1,5,-1132
606.171,-4,168,-1242
606.294,-24,420,-1160
606.418,-48,648,-877
606.542,-68,757,-534
606.666,-88,805,-272
606.791,-96,826,-76
606.914,-85,869,150
607.038,-66,892,276
607.442,-80,945,293
607.566,-81,908,264
607.83,-96,841,140
607.955,-92,838,-157
608.079,-81,793,-493
608.203,-54,668,-850
608.326,-66,442,-1089
608.451,-64,172,-1222
608.574,-77,-61,-1172
608.839,-32,-166,-1061
608.962,-20,-117,-1064
609.226,-24,-17,-1094
609.35,-33,77,-1270
609.474,-48,245,-1326
609.599,-56,444,-1085
609.722,-57,612,-617
609.847,-50,736,-209
609.97,-44,805,24
610.098,-50,848,157
610.222,-64,877,272
610.486,-52,900,257
610.611,-53,885,136
610.734,-68,848,-64
610.858,-86,798,-317
610.983,-54,621,-628
611.106,-58,429,-868
611.23,-64,286,-1061
611.354,-73,157,-1130
611.479,-40,62,-1149
611.743,-4,-84,-1057
612.146,-20,-17,-1176
612.271,-25,82,-1296
612.395,-10,274,-1241
612.518,-26,497,-893
612.642,-69,672,-442
612.767,-117,765,-101
612.89,-117,832,90
613.014,-104,877,224
613.139,-84,917,293
613.402,-68,866,304
613.526,-65,846,194
613.65,-54,876,21
613.774,-60,865,-220
613.898,-61,701,-485
614.025,-77,464,-805
614.15,-69,284,-1049
614.274,-66,173,-1146
614.398,-58,66,-1130
614.522,-53,-28,-1090
614.786,-22,-64,-1076
615.19,-60,53,-1234
615.314,-85,154,-1237
615.438,-105,381,-1086
615.562,-110,577,-654
615.687,-100,752,-334
615.81,-90,829,-78
615.934,-76,861,124
616.058,-89,890,256
616.182,-97,906,329
616.446,-85,902,333
616.57,-69,852,241
616.694,-56,816,37
616.818,-50,748,-276
616.942,-77,658,-632
617.066,-104,470,-969
617.19,-130,346,-1130
617.315,-105,150,-1186
617.438,-81,28,-1118
617.563,-41,-108,-1112
617.687,-20,-106,-1069
617.81,1,-92,-1048
618.058,-10,-40,-1040
618.182,-12,36,-1190
618.306,-5,214,-1220
618.43,4,472,-1048
618.554,-36,680,-633
618.678,-82,780,-241
618.803,-132,814,4
618.926,-121,832,144
619.05,-98,881,206
619.174,-65,906,282
619.438,-56,917,332
619.562,-53,840,258
619.686,-74,812,153
619.81,-94,838,-92
619.935,-118,844,-376
620.058,-148,701,-709
620.182,-154,470,-980
620.306,-144,220,-1158
620.43,-85,28,-1208
620.554,-57,-65,-1138
621.098,-46,-4,-1192
621.222,-48,88,-1278
621.346,-48,298,-1230
621.474,-42,550,-820
621.598,-25,754,-432
621.722,-22,854,-118
621.847,-28,882,18
621.973,-34,921,141
622.098,-41,941,212
622.222,-45,952,276
622.486,-58,910,298
622.61,-56,894,200
622.734,-56,844,-25
622.858,-74,768,-324
622.982,-89,614,-757
623.106,-145,334,-792
623.23,-138,170,-1008
623.355,-140,33,-930
623.479,-96,53,-1125
623.743,-37,-44,-1054
623.866,17,-44,-1045
624.41,-12,-26,-1084
624.534,-28,57,-1233
624.659,-2,218,-1318
624.782,-2,476,-1153
624.906,-20,669,-730
625.03,-72,800,-261
625.154,-98,804,32
625.278,-102,818,216
625.402,-89,861,292
625.806,-42,890,326
625.93,-26,829,256
626.056,-13,798,65
626.203,-46,764,-288
626.306,-101,701,-614
626.43,-132,416,-836
626.554,-125,197,-1016
626.678,-78,-13,-1108
626.802,-40,-9,-1176
626.926,-16,-49,-1072
627.33,-12,-20,-1088
627.454,12,93,-1192
627.578,52,236,-1182
627.702,44,466,-1001
627.826,5,640,-626
627.95,-40,800,-284
628.074,-48,864,8
628.198,-52,870,166
628.462,-76,886,269
628.586,-86,940,262
628.85,-80,953,240
628.975,-45,881,194
629.098,-22,856,93
629.222,-17,853,-114
629.346,-38,818,-385
629.47,-48,617,-766
629.594,-58,297,-1034
629.718,-58,46,-1184
629.842,-56,-101,-1132
629.966,-41,-130,-1112
630.094,-24,-162,-1060
630.218,-21,-148,-1033
630.342,-18,-102,-1004
630.606,-24,2,-1094
630.73,-18,46,-1210
630.854,6,217,-1252
630.978,29,384,-1060
631.102,-22,582,-665
631.226,-82,684,-270
631.35,-117,788,-33
631.474,-77,882,64
631.598,-54,940,118
631.862,-37,905,94
631.986,-61,837,-61
632.11,-97,736,-374
632.234,-73,605,-665
632.358,-49,424,-954
632.482,-37,269,-1116
632.606,-49,129,-1188
632.73,-50,65,-1173
632.855,-22,-2,-1113
632.978,-13,-38,-1077
633.242,-26,-46,-1057
633.366,-30,10,-1208
633.49,-5,148,-1258
633.614,12,393,-1196
633.738,-8,612,-858
633.862,-70,754,-485
633.99,-92,792,-108
634.114,-98,840,137
634.238,-61,889,228
634.502,-41,936,213
634.626,-50,924,114
634.75,-62,908,-54
634.874,-98,873,-326
634.998,-113,742,-601
635.122,-108,498,-882
635.246,-100,284,-929
635.37,-136,125,-960
635.494,-196,97,-940
635.618,-229,44,-984
635.742,-206,37,-986
635.866,-133,28,-985
635.99,-62,44,-1014
636.114,6,17,-1053
636.238,-8,-16,-993
636.362,-10,54,-1126
636.486,-72,228,-1225
636.611,-10,440,-1256
636.734,29,600,-948
636.858,60,698,-585
636.982,1,777,-340
637.106,-68,865,-218
637.234,-64,892,-106
637.358,-57,930,6
637.482,-42,921,97
637.606,-56,962,104
637.855,-68,964,5
637.979,-66,888,-128
638.102,-82,777,-396
638.226,-94,557,-701
638.35,-121,332,-977
638.475,-114,69,-1116
638.598,-82,-94,-1128
638.722,-42,-200,-1057
638.846,-46,-238,-1041
639.39,-120,-145,-1124
639.514,-128,-2,-1152
639.639,-161,282,-1074
639.762,-158,586,-790
639.886,-169,816,-438
640.01,-185,892,-109
640.134,-180,882,128
640.258,-158,892,252
640.522,-84,930,273
640.646,-60,909,185
640.77,-50,893,-5
640.894,-44,774,-334
641.018,-29,634,-681
641.142,-17,332,-993
641.266,-13,218,-1137
641.53,-20,52,-1168
641.654,-22,-73,-1097
641.78,-50,-102,-980
641.906,-14,-110,-950
642.03,89,-68,-1025
642.154,138,-64,-1070
642.278,137,-32,-1069
642.402,76,-40,-1024
0.0,-88,13,-282
0.142,-117,4,-653
0.266,-146,-17,-989
0.39,-89,-61,-1032
0.655,-48,-80,-1004
0.918,-90,-62,-1026
1.043,-76,65,-1125
1.166,-64,226,-1176
1.29,-48,465,-1080
1.414,-164,568,-808
1.538,-216,730,-461
1.662,-224,820,-265
1.934,-181,937,-172
2.051,-218,834,-241
2.178,-238,668,-441
2.302,-270,374,-761
2.426,-266,134,-1062
2.55,-320,-96,-1185
2.675,-330,-153,-1144
2.798,-337,-130,-1065
2.922,-257,64,-1014
3.046,-222,306,-984
3.17,-164,573,-908
3.294,-158,729,-728
3.418,-120,838,-489
3.543,-141,882,-288
3.666,-160,920,-194
3.93,-161,861,-300
4.054,-128,720,-544
4.178,-180,509,-913
4.302,-185,301,-1021
4.426,-232,121,-1061
4.55,-180,29,-966
4.675,-221,-45,-982
4.923,-176,-17,-1070
5.046,-26,184,-1154
5.17,22,481,-966
5.294,24,756,-562
5.418,-57,881,-105
5.542,-25,313,32
5.666,-2,625,60
5.79,13,944,69
5.918,18,932,42
6.043,-2,953,-21
6.166,5,812,-261
6.29,25,656,-577
6.414,14,381,-938
6.538,-20,146,-1080
6.662,-40,-62,-1134
6.786,-53,-189,-1078
6.911,-66,-185,-1081
7.034,-73,-101,-1122
7.158,-108,189,-1022
7.282,-142,514,-764
7.406,-158,840,-386
7.53,-85,940,-132
7.654,-44,989,34
7.918,-52,978,105
8.043,-42,948,-17
8.166,-9,797,-256
8.29,36,514,-620
8.414,70,136,-908
8.538,108,-152,-1058
8.662,136,-308,-1029
8.786,134,-308,-989
8.91,86,-260,-1001
9.034,56,-92,-1057
9.162,14,210,-1010
9.282,6,545,-796
9.406,4,798,-432
9.531,29,892,-100
9.657,25,932,124
9.922,-38,970,222
10.046,-18,894,73
10.17,46,664,-249
10.294,126,309,-717
10.418,121,-36,-1029
10.542,82,-250,-1117
10.666,48,-333,-1041
10.93,16,-274,-1053
11.054,-24,-65,-1098
11.178,-68,300,-981
11.302,-89,660,-613
11.426,-100,865,-173
11.55,-78,896,130
11.814,-56,934,221
11.938,-74,960,114
12.062,-22,806,-141
12.186,10,552,-496
12.31,88,134,-890
12.434,78,-173,-1065
12.558,66,-348,-1097
12.682,24,-358,-1013
12.806,-32,-302,-1008
12.93,-53,-249,-1058
13.054,-96,-66,-1114
13.178,-122,228,-1004
13.302,-106,529,-765
13.426,-56,749,-386
13.553,-20,865,-90
13.678,-26,944,110
13.802,-68,981,114
13.926,-52,912,-50
14.05,46,697,-392
14.174,150,433,-705
14.298,193,181,-922
14.422,121,33,-990
14.546,29,-64,-1069
14.67,-32,-101,-1081
15.058,-88,-36,-1069
15.182,-140,109,-1084
15.306,-204,369,-1001
15.43,-250,614,-798
15.554,-201,788,-540
15.679,-130,870,-310
15.802,-62,937,-137
15.926,-34,988,-20
16.05,-33,1020,49
16.175,-42,1013,88
16.439,-72,906,-54
16.564,-30,645,-393
16.686,-8,333,-762
16.81,22,46,-1024
16.934,20,-74,-1126
17.058,10,-118,-1161
17.182,-16,-74,-1088
17.306,-45,-33,-1054
17.433,-70,30,-1106
17.558,-80,190,-1110
17.682,-97,450,-942
17.806,-73,709,-622
17.93,-58,862,-285
18.054,-32,933,-21
18.319,-50,996,140
18.442,-41,938,-40
18.566,2,741,-338
18.69,57,404,-666
18.814,80,41,-913
18.938,105,-222,-1050
19.062,129,-346,-1093
19.186,160,-340,-1034
19.31,152,-292,-989
19.435,192,-308,-1328
19.559,52,-50,-1354
19.684,64,188,-1173
19.807,-17,573,-597
19.93,41,734,-290
20.054,-68,921,-128
20.178,-133,996,-68
20.302,-157,1008,-94
20.426,-138,928,-233
20.551,-44,672,-520
20.675,40,292,-816
20.798,117,-60,-1054
20.922,100,-226,-1101
21.047,74,-244,-1136
21.17,46,-205,-1154
21.298,-12,101,-1056
21.422,-5,406,-840
21.546,-32,770,-478
21.67,-5,877,-229
21.794,-20,953,-66
21.918,4,892,-117
22.042,8,700,-360
22.166,8,452,-656
22.29,28,141,-937
22.414,92,-138,-1012
22.538,125,-297,-1038
22.662,130,-332,-970
22.786,62,-249,-980
22.911,18,-213,-1089
23.034,4,-65,-1100
23.158,24,176,-966
23.282,77,501,-621
23.406,140,733,-329
23.534,152,898,-109
23.658,137,976,-57
23.782,89,853,-229
23.906,96,546,-521
24.03,25,128,-900
24.154,-10,-106,-1076
24.278,-52,-214,-1141
24.402,-10,-192,-1029
24.666,-57,-129,-1078
24.79,-60,4,-1200
24.914,-18,230,-1037
25.041,56,557,-670
25.166,69,794,-294
25.29,54,944,-169
25.554,73,962,-166
25.678,136,773,-361
25.802,185,386,-601
25.926,161,-66,-904
26.05,82,-349,-993
26.174,9,-425,-1018
26.438,-20,-338,-1013
26.562,10,-280,-1097
26.686,-24,17,-1038
26.81,-61,376,-818
26.934,-88,756,-454
27.058,-32,909,-152
27.182,25,988,38
27.306,34,1013,94
27.431,18,1008,36
27.554,-8,932,-112
27.678,-17,690,-408
27.802,-33,316,-760
27.926,-38,-24,-1020
28.05,-24,-208,-1081
28.174,-5,-240,-1053
28.298,8,-210,-1005
28.422,-1,-181,-1044
28.546,-16,-86,-1106
28.67,-57,181,-1030
28.794,-77,498,-770
28.922,-94,801,-377
29.046,-80,922,-129
29.45,-74,1014,-50
29.574,-26,900,-201
29.7,-29,732,-484
29.822,-13,429,-777
29.946,-25,104,-972
30.07,8,-166,-1048
30.194,10,-252,-1050
30.318,8,-216,-1017
30.442,-2,-161,-982
30.566,-9,-138,-1029
30.689,-21,-61,-1066
30.814,-40,148,-1045
30.938,-25,460,-821
31.062,-32,777,-450
31.186,-4,929,-97
31.449,-1,982,68
31.573,-12,976,-12
31.698,-37,925,-180
31.822,-30,745,-465
31.946,-34,448,-822
32.07,26,88,-1014
32.334,45,-162,-1018
32.458,9,-98,-1010
32.582,1,-68,-1022
32.706,2,-40,-1120
32.834,-58,189,-1096
32.959,-72,470,-876
33.082,-64,773,-492
33.206,21,878,-226
33.33,45,953,-142
33.594,12,970,-165
33.718,-28,848,-277
33.842,-89,636,-562
33.966,-118,254,-862
34.09,-104,-2,-1040
34.213,-81,-153,-1040
34.618,-86,-74,-1032
34.742,-84,-28,-1094
34.865,-78,126,-1076
34.991,-69,388,-913
35.114,-29,654,-602
35.238,-8,849,-373
35.362,20,938,-269
35.766,44,817,-417
35.89,40,505,-600
36.014,50,81,-886
36.138,36,-189,-1004
36.261,37,-278,-1049
36.386,17,-234,-1016
36.51,28,-108,-1025
36.633,10,145,-1009
36.758,-24,477,-868
36.886,-72,793,-542
37.009,-46,926,-233
37.133,-24,996,-13
37.537,-26,997,30
37.661,-48,894,-166
37.786,-70,656,-534
37.91,-13,256,-888
38.034,30,-66,-1057
38.157,58,-228,-1044
38.702,1,-140,-1049
38.826,8,16,-992
38.95,-26,330,-805
39.074,-20,685,-481
39.199,-18,902,-217
39.322,4,973,-84
39.446,-16,1001,-81
39.57,-57,1006,-173
39.694,-48,904,-322
39.818,-40,700,-570
39.942,-5,378,-857
40.066,24,109,-1032
40.191,42,-56,-1093
40.314,44,-90,-1038
40.718,12,-81,-1070
40.841,25,25,-1053
40.969,-42,325,-888
41.093,-94,666,-560
41.217,-154,926,-277
41.621,-102,989,-228
41.745,-73,858,-425
41.87,-28,634,-672
41.994,-20,412,-852
42.118,-13,194,-933
42.244,-38,42,-1016
42.365,-53,-54,-1012
42.49,-89,-84,-1033
42.754,-100,-101,-1024
42.877,-113,21,-1037
43.002,-130,276,-964
43.126,-176,620,-738
43.25,-158,842,-452
43.373,-109,934,-226
43.498,-34,954,-125
43.621,-10,1000,-136
43.746,10,997,-177
43.87,25,902,-292
43.994,16,678,-516
44.118,-2,392,-780
44.242,0,112,-986
44.366,49,-54,-1044
44.489,50,-117,-1042
44.753,-24,-112,-1028
45.002,-26,9,-1009
45.126,-28,268,-880
45.25,-29,598,-642
45.373,-22,858,-421
45.497,-8,986,-230
45.766,-52,1033,-168
45.886,-56,949,-284
46.01,13,734,-498
46.133,40,452,-790
46.258,34,212,-976
46.382,-1,-1,-1056
46.505,0,-128,-1020
46.91,25,-258,-990
47.033,40,-265,-1042
47.157,49,-172,-1073
47.281,65,92,-993
47.405,58,462,-765
47.53,58,761,-497
47.653,26,925,-306
47.918,5,954,-260
48.044,20,774,-464
48.166,64,469,-677
48.289,92,116,-925
48.413,93,-120,-974
48.538,65,-234,-1020
48.941,28,-266,-1050
49.069,8,-197,-1085
49.195,-20,18,-1030
49.32,-38,390,-792
49.441,-34,721,-500
49.565,-16,910,-312
49.969,44,854,-413
50.093,68,564,-645
50.218,56,190,-892
50.341,-6,-84,-1034
50.886,-25,-201,-1069
51.009,12,-66,-1026
51.134,-38,229,-890
51.257,-84,610,-572
51.382,-109,893,-324
51.786,-41,996,-198
51.91,-25,914,-297
52.034,2,690,-508
52.157,-38,398,-813
52.282,-57,104,-997
52.405,-85,-72,-1057
52.949,-85,-152,-1033
53.073,-66,-144,-1076
53.199,-69,54,-1002
53.326,-82,393,-777
53.449,-82,753,-465
53.573,-54,941,-272
53.697,-37,996,-229
53.962,-4,889,-325
54.085,37,666,-544
54.21,86,366,-817
54.333,101,70,-1038
54.458,98,-118,-1061
54.581,97,-220,-1021
54.986,41,-190,-1057
55.11,17,-101,-1098
55.233,-1,136,-993
55.357,34,474,-712
55.481,74,773,-392
55.606,89,942,-200
55.73,53,1020,-110
55.854,25,1030,-120
55.977,17,880,-298
56.102,5,617,-596
56.225,-34,301,-904
56.349,-52,70,-1032
56.474,-50,-90,-1048
57.017,25,-214,-990
57.141,48,-218,-1037
57.265,52,-90,-1034
57.393,18,209,-920
57.518,-38,608,-630
57.641,-84,890,-380
58.045,-52,881,-368
58.169,-68,686,-621
58.294,13,341,-844
58.417,72,66,-982
58.541,153,-129,-973
59.225,98,-96,-1005
59.349,57,90,-1018
59.474,-32,421,-862
59.598,-92,744,-585
59.722,-77,925,-285
59.845,-28,994,-141
60.249,-62,976,-274
60.373,-37,737,-541
60.497,-6,428,-838
60.621,66,86,-1005
60.745,68,-57,-1042
61.569,72,-112,-1013
61.696,92,-12,-1030
61.821,101,196,-944
61.945,65,532,-706
62.07,16,805,-418
62.195,-24,989,-234
62.598,-36,1029,-218
62.722,-21,945,-316
62.845,20,728,-514
62.969,93,398,-786
63.093,126,113,-965
63.217,112,-58,-1049
63.761,17,-65,-1012
63.885,30,-65,-1081
64.009,24,192,-968
64.133,17,521,-698
64.257,14,845,-325
64.381,18,956,-80
64.505,29,1005,24
64.77,2,1020,21
64.893,-14,964,-121
65.017,-57,860,-378
65.142,-105,678,-722
65.265,-38,373,-929
65.389,36,129,-1002
65.514,116,-28,-1010
65.901,80,-25,-1012
66.025,18,116,-989
66.15,-6,308,-898
66.273,12,590,-656
66.398,-6,846,-369
66.522,-30,1017,-161
66.646,-33,1057,-100
66.77,12,1022,-140
67.033,25,972,-216
67.159,12,828,-428
67.282,58,529,-713
67.405,158,206,-958
67.529,249,17,-994
68.073,268,96,-934
68.197,210,292,-906
68.323,128,576,-774
68.446,58,828,-558
68.569,8,976,-289
68.693,-28,1029,-137
68.817,-46,1044,-113
68.941,-34,1037,-180
69.065,14,965,-277
69.189,105,736,-501
69.313,222,364,-757
69.438,301,-18,-932
69.561,304,-213,-958
69.685,258,-234,-933
70.354,74,-104,-1032
70.477,44,-9,-1025
70.602,-14,241,-914
70.725,-25,570,-689
70.849,-41,822,-464
70.973,-52,949,-346
71.237,-54,857,-465
71.362,-17,576,-678
71.486,25,214,-910
71.609,65,-41,-993
72.433,50,-113,-1026
72.557,57,8,-1013
72.681,24,254,-920
72.805,-1,521,-738
72.93,-54,760,-560
73.053,-73,877,-453
73.457,-58,825,-540
73.581,0,585,-708
73.705,73,273,-881
73.829,128,4,-980
73.953,144,-125,-982
74.481,132,-88,-993
74.605,89,113,-974
74.729,4,401,-892
74.853,-53,653,-720
74.977,-74,820,-557
75.101,-57,905,-432
75.505,-61,942,-449
75.629,-25,808,-552
75.753,49,593,-713
75.878,118,324,-850
76.001,160,114,-950
76.125,170,-50,-982
76.669,134,4,-1009
76.793,93,224,-961
76.918,24,502,-850
77.042,-25,700,-694
77.166,-64,853,-528
77.289,-82,938,-382
77.693,-80,973,-366
77.817,-22,864,-526
77.941,66,653,-752
78.065,118,342,-866
78.189,162,-8,-942
78.313,178,-214,-926
78.441,193,-270,-942
78.565,153,-197,-956
78.689,94,-141,-988
78.813,56,-65,-1024
78.937,21,185,-962
79.062,-4,474,-832
79.185,-24,761,-610
79.309,-28,885,-434
79.573,-44,946,-345
79.697,-64,849,-486
79.821,-58,625,-702
79.945,-38,353,-922
80.069,0,122,-1029
80.194,49,-9,-1017
80.317,82,-54,-988
80.581,81,-73,-994
80.705,45,-41,-1029
80.829,-16,141,-1001
80.953,-66,420,-862
81.077,-94,712,-669
81.201,-82,872,-501
81.466,-68,958,-408
81.589,-85,920,-444
81.714,-92,776,-610
81.837,-45,514,-786
81.962,8,241,-954
82.085,46,46,-992
82.209,34,-54,-1004
82.737,12,5,-993
82.861,-22,226,-948
82.985,-64,509,-817
83.109,-96,750,-660
83.233,-98,858,-542
83.497,-85,898,-553
83.622,-58,794,-641
83.745,-1,590,-781
83.869,44,349,-896
83.993,74,160,-976
84.117,78,61,-993
84.801,68,53,-1005
84.925,-34,214,-984
85.051,-114,454,-866
85.174,-141,710,-692
85.298,-84,840,-524
85.701,-57,928,-442
85.825,-53,796,-546
85.949,-42,537,-737
86.073,-30,218,-933
86.198,-14,-29,-1026
86.321,16,-148,-1021
86.969,10,-121,-1052
87.093,-18,56,-1021
87.217,-52,376,-852
87.341,-74,729,-598
87.465,-68,913,-422
87.729,-52,909,-416
87.853,-70,741,-576
87.977,-48,420,-780
88.101,-32,104,-960
88.225,2,-98,-1018
88.909,-21,-126,-1006
89.173,-34,105,-974
89.298,-58,430,-764
89.421,-89,788,-500
89.545,-92,964,-325
89.809,-46,973,-302
89.933,-40,848,-434
90.057,-14,608,-650
90.181,33,277,-878
90.305,62,5,-1024
90.569,46,-156,-1029
90.973,41,-104,-1005
91.105,14,112,-976
91.229,-2,389,-889
91.353,-16,682,-728
91.477,-20,809,-585
92.021,-8,881,-493
92.145,1,769,-593
92.27,37,548,-740
92.393,93,278,-889
92.517,132,30,-954
92.641,162,-166,-978
93.045,126,-118,-977
93.169,84,141,-908
93.293,10,488,-770
93.417,-32,765,-593
93.541,-46,897,-472
94.085,-24,846,-524
94.209,13,641,-690
94.333,56,361,-865
94.458,93,112,-986
94.581,116,-50,-1008
95.125,114,12,-974
95.25,61,265,-909
95.376,9,596,-760
95.501,-14,808,-582
95.625,-8,904,-464
96.169,1,922,-430
96.294,17,770,-572
96.417,94,405,-770
96.541,156,46,-949
96.805,194,-186,-973
97.489,161,-66,-970
97.613,148,61,-974
97.737,97,318,-898
97.861,30,624,-710
97.985,-17,849,-497
98.109,-50,961,-358
98.638,-28,989,-328
98.764,-28,953,-389
98.885,-10,849,-537
99.009,33,636,-693
99.133,89,354,-872
99.257,132,125,-958
102.306,-22,106,-1004
102.43,-56,300,-940
102.553,-77,566,-805
102.677,-66,768,-614
102.802,-41,886,-476
103.346,-24,861,-506
103.469,-4,662,-669
103.593,68,318,-846
103.717,101,62,-969
103.841,109,-78,-997
104.105,36,-66,-993
104.649,-101,28,-980
104.777,-149,294,-936
104.902,-169,581,-800
105.025,-148,829,-613
105.149,-108,908,-436
105.693,-128,966,-381
105.817,-144,881,-480
105.941,-130,644,-669
106.065,-82,344,-861
106.189,-45,70,-997
107.153,-104,130,-973
107.277,-120,408,-861
107.403,-126,720,-674
107.527,-89,890,-449
107.649,-73,974,-309
108.053,-62,1005,-297
108.177,-62,917,-412
108.301,-65,728,-625
108.425,-18,410,-814
108.549,-2,130,-973
109.358,-60,146,-978
109.481,-85,410,-862
109.605,-89,710,-690
109.73,-56,881,-465
109.853,-40,961,-334
110.397,-37,952,-378
110.521,-17,800,-524
110.645,0,557,-732
110.77,21,217,-894
110.893,21,-9,-1002
111.717,-44,104,-996
111.841,-41,348,-908
111.965,-33,637,-738
112.089,-18,832,-520
112.213,-20,946,-384
112.617,-30,914,-444
112.741,-24,745,-637
112.865,-6,442,-858
112.989,6,150,-990
113.113,6,-29,-1026
113.901,-24,86,-964
114.025,-28,322,-893
114.149,-37,621,-765
114.273,-29,808,-604
114.397,-20,905,-452
114.521,-16,954,-350
115.065,-18,933,-444
115.189,-1,742,-625
115.313,36,446,-813
115.437,42,172,-956
115.561,25,14,-1002
116.385,-45,81,-992
116.509,-66,297,-922
116.633,-76,585,-786
116.757,-64,810,-596
116.881,-36,916,-441
117.149,-29,981,-368
117.273,-9,934,-433
117.397,10,804,-574
117.522,21,601,-726
117.646,37,306,-873
117.769,38,54,-970
117.893,37,-105,-1014
118.02,17,-112,-1016
118.425,14,-57,-1025
118.549,10,124,-997
118.673,17,373,-902
118.797,-5,649,-744
118.922,-24,816,-565
119.045,-38,920,-432
119.449,-37,916,-426
119.573,-41,818,-557
119.697,-4,592,-740
119.821,60,293,-870
119.945,105,30,-957
120.769,-6,41,-990
120.893,-14,294,-932
121.017,-8,617,-773
121.141,1,820,-558
121.265,-14,941,-369
121.529,-42,928,-373
121.653,-61,772,-573
121.777,-72,506,-792
121.901,-90,234,-956
122.025,-73,-1,-1005
122.149,-49,-148,-998
122.817,-29,-146,-1000
122.941,-54,64,-984
123.065,-85,393,-881
123.189,-90,712,-697
123.313,-69,884,-513
123.437,-25,945,-373
123.842,-21,989,-314
123.965,-37,968,-377
124.089,-58,888,-506
124.213,-64,685,-677
124.337,-68,386,-864
124.461,-28,57,-978
124.585,12,-129,-1009
124.709,42,-190,-990
125.253,16,-93,-1001
125.377,1,69,-998
125.501,-26,314,-930
125.625,-49,589,-798
125.749,-48,769,-625
125.873,-30,892,-489
125.997,-12,950,-390
126.121,-10,992,-338
126.245,-24,998,-340
126.369,-42,930,-437
126.497,-53,761,-629
126.621,-61,524,-830
126.745,-29,264,-954
126.869,8,65,-997
126.993,34,-62,-1004
127.537,-8,-92,-996
127.661,-20,66,-977
127.785,-40,306,-929
127.909,-69,588,-809
128.038,-72,762,-673
128.157,-73,878,-529
128.283,-61,944,-410
128.545,-61,981,-290
128.669,-54,934,-406
128.793,9,733,-600
128.917,60,500,-837
129.041,89,225,-942
129.165,101,25,-966
129.289,81,-116,-988
129.554,48,-161,-1010
129.817,21,77,-962
129.941,0,353,-857
130.064,-41,717,-657
130.19,-24,882,-469
130.312,-16,973,-334
130.437,-18,1002,-344
130.565,9,866,-452
130.689,33,637,-668
130.812,70,326,-850
130.937,89,97,-989
131.061,94,-44,-1008
131.185,52,-94,-1008
131.449,12,-58,-977
131.572,-9,-8,-1030
131.697,-38,184,-989
131.82,-74,474,-886
131.944,-28,765,-632
132.069,10,922,-437
132.193,18,989,-290
132.457,16,974,-277
132.581,49,754,-460
132.705,109,401,-716
132.828,133,20,-902
133.093,120,-214,-988
133.216,92,-108,-1084
133.34,-6,198,-1144
133.464,-42,481,-1012
133.589,-56,721,-736
133.713,-28,809,-393
133.836,-37,892,-156
133.961,-69,969,14
134.084,-62,980,120
134.488,-80,1014,102
134.617,-52,925,-46
134.741,-22,749,-341
134.865,32,441,-718
134.989,29,189,-1012
135.113,49,-24,-1134
135.236,32,-81,-1098
135.641,-24,-50,-1110
135.764,-94,138,-1146
135.889,-162,421,-990
136.013,-169,670,-620
136.137,-137,818,-237
136.261,-114,908,-33
136.384,-106,992,36
136.789,-73,981,-45
136.913,-49,841,-242
137.037,-10,557,-572
137.162,-6,254,-884
137.285,9,-1,-1089
137.408,0,-113,-1136
137.533,6,-160,-1104
137.657,0,-158,-1028
137.921,-6,-133,-1046
138.044,-20,-82,-1162
138.168,-20,62,-1141
138.292,-32,304,-912
138.416,-74,596,-497
138.543,-126,836,-138
138.669,-128,962,62
138.793,-121,1034,92
139.056,-86,1022,38
139.181,-85,966,-16
139.304,-89,864,-178
139.429,-100,673,-517
139.553,-65,402,-850
139.676,-28,130,-1046
139.801,-12,-12,-1092
140.065,-2,-72,-1029
140.328,-10,-72,-1037
140.453,-40,-36,-1141
140.576,-62,152,-1101
140.701,-85,436,-854
140.825,-61,720,-446
140.949,-36,874,-136
141.073,5,953,33
141.197,-4,1017,65
141.46,2,1026,-2
141.584,58,918,-169
141.709,93,709,-450
141.833,85,416,-780
141.957,46,146,-978
142.081,-12,-12,-1084
142.205,-24,-52,-1074
142.873,-25,-6,-1082
142.996,-34,126,-1121
143.121,-76,380,-972
143.244,-108,682,-605
143.368,-93,834,-221
143.493,-62,924,52
143.617,-44,969,177
144.02,-68,1012,190
144.144,-42,968,77
144.269,-14,826,-164
144.393,-8,610,-552
144.516,-44,333,-856
144.641,-57,124,-1057
144.904,-61,12,-1066
145.308,-82,86,-993
145.433,-82,122,-1009
145.557,-97,166,-1082
145.681,-62,229,-1045
145.805,-89,421,-952
145.929,-117,670,-694
146.053,-165,872,-457
146.176,-118,922,-210
146.301,-65,925,-57
146.424,-33,945,2
146.549,-60,1001,-16
146.676,-85,1046,-58
146.801,-100,1049,-76
146.925,-84,1002,-82
147.049,-70,876,-169
147.176,-80,637,-446
147.301,-62,344,-789
147.425,-30,120,-1046
147.549,-14,37,-1117
147.673,-40,38,-1080
148.217,-61,61,-1082
148.34,-49,96,-1160
148.464,-44,218,-1145
148.589,-73,441,-912
148.713,-89,701,-564
148.836,-92,894,-272
148.961,-64,978,-108
149.505,-65,1018,-56
149.629,-64,960,-152
149.752,-68,749,-432
149.876,-66,464,-750
150.001,-36,137,-996
150.124,-1,-22,-1105
150.248,32,-98,-1093
150.373,16,-73,-1058
150.776,-20,-44,-1037
150.904,-46,-5,-1120
151.028,-72,154,-1077
151.153,-80,444,-858
151.277,-84,740,-502
151.401,-70,909,-222
151.525,-57,957,-102
151.648,-58,997,-85
152.053,-49,988,-134
152.176,-46,934,-282
152.3,-14,780,-518
152.424,-25,561,-777
152.55,-34,300,-949
152.672,-45,78,-1036
152.936,5,-76,-1041
153.341,-25,-26,-1045
153.465,-84,97,-1062
153.588,-158,309,-1002
153.713,-206,585,-780
153.836,-192,789,-498
153.96,-144,905,-268
154.084,-110,961,-153
154.488,-94,1014,-142
154.612,-65,941,-192
154.736,-54,796,-350
154.86,-82,589,-645
154.988,-114,308,-922
155.112,-108,74,-1100
155.237,-62,-81,-1122
155.362,-32,-112,-1088
155.904,-12,-102,-1026
156.029,-54,-28,-1064
156.153,-164,161,-1049
156.277,-240,444,-869
156.401,-234,700,-604
156.525,-138,849,-344
156.649,-86,945,-218
157.192,-36,956,-262
157.317,-45,824,-429
157.441,-64,594,-690
157.564,-66,314,-913
157.688,-32,54,-1009
157.812,-1,-100,-1020
157.936,2,-146,-1009
158.48,-29,-80,-1028
158.604,-49,-32,-1086
158.728,-77,150,-1050
158.852,-124,444,-886
158.976,-145,716,-608
159.1,-130,873,-396
159.229,-86,948,-274
159.352,-46,993,-217
159.757,-24,998,-206
159.881,-13,933,-320
160.005,0,769,-529
160.129,2,526,-797
160.252,21,224,-970
160.376,12,24,-1054
161.06,-46,41,-1074
161.185,-68,202,-1081
161.308,-125,472,-969
161.432,-140,693,-704
161.557,-125,848,-444
161.682,-80,922,-276
162.224,-42,1002,-182
162.348,20,817,-349
162.472,41,592,-624
162.597,66,309,-864
162.721,49,116,-1009
162.844,37,-14,-1037
162.968,4,-52,-1064
163.373,-8,1,-1030
163.5,-21,134,-1054
163.624,-28,350,-994
163.749,-61,621,-808
163.873,-84,785,-590
163.997,-102,882,-400
164.12,-82,913,-274
164.245,-54,952,-197
164.508,-20,936,-220
164.633,-4,838,-341
164.756,33,625,-640
164.88,70,389,-885
165.008,86,165,-1050
165.132,78,24,-1030
165.256,40,-34,-1074
165.381,61,-92,-1049
165.768,40,1,-1078
165.892,5,170,-1072
166.016,-62,453,-946
166.141,-81,697,-686
166.264,-88,873,-430
166.388,-58,940,-253
166.512,-40,962,-132
166.916,-6,913,-229
167.041,17,754,-456
167.164,38,449,-742
167.289,17,170,-956
167.412,1,-46,-1037
168.1,42,-29,-1041
168.224,48,165,-1036
168.348,12,436,-912
168.472,-24,665,-648
168.597,-48,825,-412
168.721,-38,920,-238
168.845,-30,982,-184
169.108,-48,1026,-218
169.233,4,909,-293
169.357,52,688,-504
169.481,81,397,-750
169.604,66,164,-989
169.728,40,48,-1050
169.992,49,-52,-1014
170.676,48,-174,-961
170.801,73,-197,-964
170.924,105,-94,-1010
171.049,74,-24,-1021
171.172,34,97,-1064
171.296,-22,152,-1040
171.421,-17,361,-981
171.547,-30,577,-790
171.668,-42,772,-512
171.796,-101,921,-304
172.2,-126,965,-238
172.325,-30,792,-485
172.448,90,545,-764
172.572,182,309,-952
172.696,177,182,-1004
172.82,156,122,-1016
172.944,120,58,-1022
173.208,85,25,-1009
173.332,72,94,-1029
173.456,26,286,-970
173.581,-33,548,-806
173.704,-101,786,-545
173.828,-133,922,-341
173.952,-122,981,-216
174.076,-93,1024,-146
174.2,-85,1056,-117
174.324,-70,1064,-130
174.449,-69,1026,-280
174.572,-5,892,-458
174.696,32,712,-676
174.824,104,478,-796
174.948,90,266,-929
175.072,90,64,-986
175.196,60,-92,-1025
175.46,26,-152,-989
175.848,-28,-122,-1013
175.972,-53,38,-1012
176.096,-48,288,-938
176.22,-64,621,-746
176.344,-56,830,-540
176.468,-68,968,-370
176.872,-58,1010,-317
176.997,-50,898,-428
177.12,-24,694,-642
177.244,34,385,-832
177.379,74,108,-966
177.492,77,-80,-977
177.616,57,-217,-964
177.74,72,-297,-929
177.864,105,-344,-916
177.988,85,-358,-918
178.112,32,-313,-942
178.236,-6,-286,-949
178.36,-78,-245,-1158
178.484,-84,-213,-1209
178.608,-90,-84,-1221
178.733,-49,196,-948
178.856,-41,536,-813
178.98,-33,770,-670
179.104,-5,877,-580
179.508,-4,881,-498
179.632,34,630,-622
179.759,117,252,-796
179.884,188,-108,-916
180.008,138,-218,-957
180.132,18,-208,-950
180.536,-98,-149,-997
180.941,-101,-113,-1005
181.064,-96,-113,-1024
181.188,-44,-85,-1001
181.312,-72,-28,-1022
181.436,-88,142,-1021
181.56,-149,401,-953
181.685,-105,634,-773
181.808,-41,818,-577
181.932,-22,898,-449
182.056,-49,985,-385
182.32,-84,912,-469
182.444,-52,652,-677
182.568,6,348,-864
182.692,72,44,-981
182.817,106,-116,-1014
182.941,85,-186,-1013
183.064,54,-189,-989
183.188,-4,-125,-1001
183.312,-68,-54,-1013
183.58,-126,108,-1044
183.704,-102,326,-917
183.832,-78,608,-746
183.957,-30,832,-488
184.08,-20,934,-348
184.204,-45,994,-233
184.608,-88,1013,-252
184.732,-62,950,-341
184.856,-44,822,-509
184.98,-46,642,-710
185.104,-45,446,-873
185.228,-44,248,-976
185.352,-26,90,-1020
185.476,-13,-13,-1032
186.16,6,25,-966
186.284,-10,86,-968
186.408,-41,193,-942
186.532,-42,386,-922
186.656,-29,598,-793
186.78,-4,804,-622
186.904,4,909,-417
187.028,-28,982,-281
187.152,-70,1020,-200
187.696,-66,945,-316
187.82,-40,808,-517
187.944,-1,538,-736
188.073,44,245,-910
188.196,80,-2,-989
188.46,64,-113,-980
188.724,25,-94,-977
188.988,24,21,-1016
189.112,32,204,-993
189.236,29,500,-814
189.36,24,772,-562
189.493,-13,949,-324
189.608,-62,1020,-204
189.733,-108,1042,-140
190.136,-109,1038,-137
190.261,-52,1008,-209
190.384,37,890,-386
190.508,136,698,-577
190.632,224,457,-778
190.756,246,221,-924
190.882,206,64,-1010
191.004,160,0,-1029
191.548,70,25,-1014
191.672,32,168,-1025
191.796,73,412,-876
191.921,106,705,-624
192.044,130,914,-312
192.172,57,1010,-137
192.296,-24,1049,-41
192.84,-68,996,-158
192.964,-60,893,-373
193.088,-42,641,-665
193.213,13,306,-880
193.337,64,-33,-1002
193.601,69,-245,-1006
194.004,-18,-102,-1000
194.128,-53,90,-1008
194.252,-21,402,-873
194.376,29,669,-658
194.5,64,894,-394
194.624,8,986,-224
194.748,-69,1045,-126
195.136,-129,1010,-148
195.26,-110,937,-289
195.384,-74,786,-517
195.508,-24,562,-754
195.632,-2,293,-921
195.756,-5,92,-1009
195.88,-17,1,-1024
196.548,-42,46,-1016
196.672,-46,228,-997
196.796,-30,486,-885
196.921,9,720,-677
197.044,28,870,-420
197.168,0,992,-201
197.572,-50,1038,-110
197.696,-61,998,-220
197.82,-73,880,-422
197.944,-58,674,-670
198.068,-24,400,-878
198.192,18,121,-982
198.317,30,-92,-1012
198.72,24,-189,-1001
198.844,1,-49,-1034
198.969,10,214,-969
199.092,29,566,-774
199.216,53,826,-476
199.34,42,968,-224
199.464,4,1038,-72
199.588,-12,1052,-49
199.852,-29,953,-242
199.976,-29,777,-496
200.101,-46,504,-776
200.224,-37,190,-962
200.348,-28,-80,-1010
200.472,-9,-220,-1017
200.88,-13,-190,-990
201.004,-32,18,-1001
201.128,-21,338,-905
201.252,0,694,-689
201.376,28,889,-404
201.5,9,993,-229
201.904,-85,992,-274
202.028,-82,802,-486
202.152,-82,473,-728
202.276,-14,72,-953
202.4,6,-178,-1004
202.524,24,-266,-1006
202.928,-32,-122,-1002
203.053,-58,113,-996
203.176,-32,406,-900
203.3,18,697,-713
203.424,68,858,-441
203.548,54,961,-218
203.672,0,1033,-68
203.936,-30,1053,-86
204.06,-24,964,-278
204.184,-2,772,-525
204.308,-10,528,-780
204.432,32,177,-910
204.556,34,-110,-990
204.684,41,-274,-1000
204.808,4,-260,-997
205.072,-36,-142,-993
205.196,-52,10,-1005
205.32,-30,253,-960
205.444,5,526,-809
205.568,33,789,-516
205.692,10,954,-273
206.236,-42,982,-160
206.361,-64,842,-430
206.485,-40,536,-681
206.609,-6,176,-936
206.732,36,-110,-980
206.856,26,-226,-1025
207.12,0,-172,-988
207.245,5,-132,-1026
207.368,-2,129,-965
207.492,22,465,-757
207.616,12,814,-449
207.74,18,941,-180
207.865,2,1021,-6
208.128,-22,1041,60
208.252,-93,1042,-38
208.376,-166,1024,-189
208.5,-197,960,-370
208.624,-162,796,-597
208.752,-64,565,-782
208.876,-12,281,-885
209.0,44,-24,-946
209.124,50,-240,-953
209.248,66,-324,-972
209.372,62,-309,-958
209.496,46,-145,-990
209.619,42,204,-894
209.744,50,601,-680
209.868,49,900,-362
209.992,17,993,-136
210.116,-46,1042,13
210.38,-118,1061,45
210.505,-128,1054,-28
210.629,-90,880,-325
210.752,-10,554,-629
210.876,45,174,-916
211.0,92,-126,-956
211.124,82,-286,-969
211.248,81,-346,-950
211.372,38,-297,-966
211.496,54,-194,-990
211.619,57,106,-936
211.744,74,496,-750
211.868,61,854,-458
211.992,73,992,-213
212.256,34,1042,-89
212.38,-12,1049,-164
212.504,-37,972,-328
212.632,-38,776,-558
212.756,25,402,-789
212.88,81,38,-946
213.008,100,-208,-996
213.132,57,-258,-994
213.536,0,-45,-994
213.66,-24,282,-864
213.784,-32,676,-633
213.908,-10,916,-334
214.032,14,1022,-154
214.296,14,1066,-86
214.42,0,1002,-244
214.544,-41,888,-482
214.667,-18,634,-764
214.792,38,352,-901
214.916,105,56,-993
215.18,100,-109,-993
215.304,69,-73,-996
215.428,57,2,-1013
215.552,18,212,-1001
215.676,52,489,-864
215.8,66,756,-622
215.924,69,906,-354
216.048,4,990,-137
216.172,-77,1041,-36
216.296,-108,1042,-18
216.563,-97,1037,-110
216.687,-101,957,-316
216.812,-88,749,-578
216.936,-64,489,-853
217.06,-17,253,-974
217.184,6,108,-1017
217.587,-13,158,-1013
217.712,32,373,-918
217.836,93,653,-718
217.96,136,832,-453
218.084,84,965,-241
218.208,4,1025,-122
218.473,-69,1042,-137
218.596,-60,1014,-217
218.72,-36,950,-356
218.844,28,721,-573
218.968,60,408,-769
219.091,72,41,-965
219.216,46,-141,-1014
219.34,36,-208,-1032
219.464,32,-194,-1006
219.59,18,-118,-1012
219.712,20,184,-936
219.837,46,532,-756
219.961,64,837,-504
220.084,33,942,-285
220.207,-38,1020,-126
220.472,-92,1053,-96
220.601,-73,981,-265
220.724,-20,796,-480
220.847,40,474,-732
220.972,82,98,-897
221.096,70,-157,-993
221.22,44,-250,-1010
221.624,21,-172,-989
221.748,18,69,-946
221.872,25,394,-817
221.996,-22,754,-574
222.123,-66,922,-326
222.248,-109,1029,-161
222.372,-109,1053,-118
222.496,-88,1054,-182
222.62,-66,940,-381
222.744,-45,734,-624
222.868,-18,453,-840
222.991,-9,192,-938
223.116,6,-72,-1002
223.52,-14,-220,-958
223.644,-36,-190,-981
223.768,-46,-73,-1025
223.892,-49,122,-1021
224.015,6,401,-872
224.139,32,693,-596
224.263,53,893,-313
224.387,6,1020,-136
224.796,-49,1030,-186
224.92,-37,865,-398
225.044,-20,604,-678
225.167,5,276,-910
225.292,10,62,-1008
225.837,-29,-32,-1030
225.96,-20,160,-982
226.084,13,464,-829
226.207,66,737,-530
226.332,70,934,-257
226.455,46,1014,-76
226.579,20,1042,-62
226.704,8,1025,-137
226.827,-18,921,-348
226.952,-25,705,-598
227.075,-54,410,-860
227.2,-48,148,-990
227.324,-62,1,-1030
227.588,-56,-84,-1006
227.852,-81,-25,-1026
227.976,-81,176,-1009
228.1,-61,508,-826
228.223,-26,762,-597
228.347,-18,941,-344
228.472,-44,1009,-189
228.723,-80,1036,-164
228.848,-45,913,-384
228.972,-13,648,-629
229.1,-2,340,-868
229.223,-1,40,-974
229.348,-17,-112,-1005
229.752,-26,-202,-1012
229.876,-44,-104,-1036
230.0,-20,164,-966
230.123,40,488,-724
230.247,70,780,-448
230.372,24,926,-236
230.496,-72,1024,-154
230.62,-121,1060,-152
230.743,-129,1038,-244
230.868,-112,952,-416
230.991,-82,762,-622
231.116,-26,520,-792
231.239,0,285,-908
231.364,10,64,-957
231.488,-36,-74,-996
232.312,-96,-4,-1028
232.437,-60,257,-968
232.56,-5,581,-772
232.685,22,824,-452
232.811,5,961,-197
233.215,-48,1056,-130
233.34,-25,1038,-240
233.464,-1,905,-465
233.588,40,638,-696
233.712,38,364,-897
233.837,25,130,-974
233.961,-12,2,-1009
234.084,-30,-114,-1013
234.627,-46,-97,-1020
234.751,-25,96,-993
234.877,-6,450,-806
234.999,6,748,-537
235.124,-21,964,-256
235.248,-53,1030,-112
235.511,-86,1026,-161
235.635,-92,890,-404
235.76,-64,608,-677
235.884,-26,345,-892
236.007,14,133,-949
236.132,1,2,-986
236.255,-5,-116,-992
236.66,-48,-121,-1009
236.783,-42,37,-1009
236.91,-17,328,-904
237.035,12,649,-692
237.159,24,886,-420
237.283,8,1000,-205
237.828,-66,1036,-90
237.952,-57,972,-250
238.075,-45,796,-505
238.2,-21,544,-758
238.324,-22,253,-925
238.448,-13,13,-1009
238.573,-26,-92,-1016
238.975,-57,-56,-1006
239.1,-68,105,-1000
239.224,-70,398,-890
239.347,-41,693,-657
239.471,-32,910,-336
239.596,-53,1005,-69
240.14,-125,1044,-65
240.263,-129,1004,-220
240.388,-94,874,-466
240.511,-30,630,-680
240.636,13,344,-884
240.76,21,108,-1001
240.884,12,6,-1032
241.412,-49,-20,-1005
241.536,-92,132,-1032
241.659,-84,345,-957
241.783,-36,621,-776
241.908,5,810,-478
242.031,-24,958,-221
242.156,-80,1022,-52
242.42,-134,1046,-28
242.544,-129,1061,-81
242.667,-106,1050,-154
242.792,-69,981,-332
242.915,-22,816,-558
243.039,30,574,-784
243.164,50,340,-901
243.287,53,106,-966
243.412,20,-58,-992
244.516,-37,-196,-980
244.641,-49,-94,-994
244.764,-68,124,-1004
244.888,-41,400,-912
245.012,-36,682,-738
245.135,-12,858,-518
245.26,-34,974,-334
245.388,-34,1014,-214
245.651,-46,1008,-208
245.775,-78,934,-398
245.899,-85,756,-609
246.024,-77,524,-798
246.148,-10,128,-920
246.271,-4,-122,-966
246.395,13,-300,-990
246.94,-6,-238,-965
247.063,-20,-90,-992
247.187,-4,142,-976
247.311,37,436,-870
247.437,61,702,-621
247.56,50,893,-334
247.684,-8,1002,-141
248.227,-77,1038,-190
248.351,-86,981,-318
248.475,-60,825,-541
248.6,-29,581,-765
248.723,-1,276,-905
248.848,2,-37,-990
249.391,-41,-52,-1022
249.516,-33,240,-917
249.644,-52,612,-701
249.768,-84,870,-417
249.892,-124,996,-238
250.295,-126,1012,-278
250.42,-109,930,-432
250.544,-64,772,-636
250.667,-12,545,-817
250.792,34,332,-914
250.916,34,129,-938
251.04,20,-74,-985
251.163,-10,-217,-993
251.287,-33,-265,-1025
251.412,-33,-226,-1030
251.535,-29,-109,-1025
251.659,-44,202,-938
251.783,-34,548,-748
251.907,-40,868,-497
252.031,-34,958,-302
252.575,-65,938,-336
252.699,-41,761,-566
252.824,-8,501,-821
252.947,5,238,-970
253.072,14,-2,-1006
253.195,6,-164,-1004
253.743,-26,-161,-982
253.867,-36,33,-994
253.991,-24,305,-929
254.115,-17,609,-777
254.239,-4,801,-556
254.364,-33,938,-365
254.627,-84,994,-305
254.752,-62,908,-453
254.875,-25,732,-656
255.0,8,510,-836
255.127,26,310,-941
255.252,42,134,-961
255.375,24,-32,-1016
255.499,6,-152,-1022
255.623,-24,-189,-1033
256.027,-56,-72,-1005
256.151,-82,138,-985
256.276,-77,396,-896
256.399,-57,649,-744
256.523,-29,825,-544
256.647,-52,942,-390
256.912,-93,986,-352
257.316,-65,850,-562
257.441,-53,668,-724
257.564,-25,416,-900
257.687,-8,221,-937
257.815,-4,40,-980
257.939,-21,-98,-997
258.343,-50,-42,-1000
258.467,-68,212,-954
258.592,-77,536,-814
258.715,-70,802,-613
258.841,-61,936,-414
258.963,-85,1002,-282
259.507,-104,982,-340
259.631,-70,870,-525
259.755,-32,674,-726
259.88,2,469,-861
260.003,12,277,-928
260.128,1,93,-961
260.252,-24,-73,-996
260.795,-76,-214,-994
260.92,-76,-145,-1017
261.045,-85,165,-956
261.168,-42,517,-788
261.291,-20,850,-517
261.415,-10,948,-296
261.539,-76,1038,-145
261.943,-142,1034,-130
262.069,-134,926,-345
262.211,-66,673,-609
262.335,21,342,-840
262.459,49,6,-940
262.583,25,-208,-977
262.707,-6,-293,-978
262.971,-14,-228,-964
263.095,-30,-142,-1018
263.219,-42,17,-1045
263.343,-45,261,-966
263.467,-64,526,-802
263.592,-86,770,-576
263.715,-112,918,-394
263.843,-93,985,-254
264.387,-40,966,-310
264.511,-24,861,-496
264.636,-4,684,-718
264.76,5,490,-862
264.885,65,201,-944
265.007,96,-53,-1000
265.131,133,-240,-981
265.396,88,-188,-957
265.521,16,-4,-978
265.643,-44,312,-901
265.767,-58,612,-712
265.892,-44,857,-444
266.015,-60,997,-216
266.283,-88,1061,-148
266.407,-86,1014,-288
266.531,-57,917,-468
266.655,-32,750,-672
266.78,14,542,-846
266.903,4,333,-954
267.027,-17,126,-1030
267.151,-38,-10,-1022
267.555,-61,20,-1009
267.679,-58,212,-990
267.803,-45,493,-865
267.927,-44,745,-632
268.051,-66,921,-360
268.175,-86,1002,-178
268.44,-57,1025,-166
268.564,-56,986,-276
268.687,-54,926,-417
268.811,-48,816,-570
268.935,-56,637,-718
269.059,-85,456,-861
269.183,-126,316,-941
269.309,-126,212,-981
269.431,-104,90,-985
269.555,-66,-34,-1009
269.819,-61,-61,-1006
269.943,-77,1,-1006
270.072,-69,117,-994
270.196,-69,328,-928
270.321,-56,609,-776
270.443,-42,825,-568
270.568,-36,944,-388
270.691,-50,989,-274
271.236,-72,1005,-269
271.359,-73,898,-441
271.483,-78,717,-649
271.608,-89,486,-872
271.731,-70,249,-962
271.855,-62,73,-1018
272.68,-65,-24,-1013
272.803,-38,61,-994
272.927,-6,296,-900
273.051,5,624,-714
273.175,6,866,-506
273.3,-2,972,-349
274.666,-12,965,-396
274.791,-16,814,-545
274.916,-24,526,-766
275.04,-33,176,-937
275.163,-24,-77,-1013
275.847,-76,-30,-1017
275.971,-98,218,-957
276.095,-96,561,-765
276.219,-96,840,-514
276.343,-97,977,-318
277.027,-110,1000,-297
277.151,-90,946,-405
277.275,-49,817,-592
277.399,-33,573,-813
277.524,-32,284,-953
277.648,-36,20,-1026
278.331,-52,-61,-1009
278.455,-46,74,-1013
278.579,-25,366,-913
278.703,-2,674,-718
278.827,-12,902,-464
278.951,-50,985,-297
279.361,-64,994,-336
279.483,-54,925,-452
279.607,-33,757,-626
279.731,-24,540,-793
279.855,-32,301,-920
279.979,-32,42,-997
280.103,-24,-140,-1008
280.227,-18,-234,-997
280.631,-53,-181,-1009
280.755,-42,-109,-1034
280.879,-45,141,-1016
281.005,-21,458,-881
281.127,1,761,-664
281.252,20,901,-428
281.375,-1,993,-266
281.919,-8,988,-289
282.044,13,882,-454
282.168,17,713,-673
282.294,5,504,-834
282.415,-30,284,-922
282.539,-36,53,-972
282.663,-45,-93,-992
283.471,-48,-70,-1024
283.599,-38,180,-968
283.723,-28,494,-829
283.847,-30,776,-612
283.971,-40,917,-408
284.095,-61,1010,-249
284.36,-66,1037,-198
284.483,-48,982,-341
284.607,-28,832,-558
284.731,-10,598,-784
284.856,-8,338,-916
284.979,-6,81,-993
285.103,-4,-88,-1008
285.227,-5,-158,-1010
285.631,-32,-70,-994
285.757,-49,106,-1002
285.88,-41,378,-925
286.003,-25,657,-762
286.127,4,853,-525
286.251,-8,960,-313
286.375,-32,1020,-146
286.78,-33,1026,-157
286.903,1,957,-306
287.027,38,816,-525
287.152,44,594,-757
287.275,6,341,-914
287.404,-5,48,-1012
287.527,-14,-120,-1012
287.651,-9,-196,-1004
287.775,-20,-169,-1006
287.899,-28,-66,-1022
288.023,-17,160,-976
288.147,1,508,-812
288.271,24,786,-566
288.395,21,953,-316
288.521,-1,1006,-130
289.063,13,973,-204
289.187,60,802,-457
289.311,105,548,-740
289.437,100,242,-878
289.559,76,-29,-962
289.683,37,-193,-985
290.227,-41,-150,-998
290.351,-69,-61,-1028
290.475,-89,169,-994
290.599,-78,466,-800
290.724,-92,777,-528
290.847,-122,956,-273
290.971,-149,1022,-129
291.519,-114,1029,-96
291.643,-77,990,-226
291.772,-48,897,-445
291.891,-12,685,-658
292.016,2,360,-845
292.139,4,-5,-1001
292.263,4,-241,-1018
292.387,-4,-313,-1014
292.651,18,-245,-956
292.775,21,-198,-988
292.899,10,-112,-1009
293.023,8,38,-1032
293.147,17,270,-941
293.271,16,570,-777
293.395,1,824,-514
293.519,-28,960,-298
293.643,-65,1014,-132
294.187,-78,1049,-62
294.312,-50,981,-249
294.435,6,796,-524
294.56,72,481,-758
294.683,70,192,-882
294.807,65,-40,-932
294.932,36,-180,-985
295.055,49,-250,-981
295.459,5,-180,-990
295.586,-29,-16,-1016
295.711,-66,274,-964
295.835,-53,590,-798
295.959,-14,808,-517
296.083,-28,944,-268
296.207,-72,1001,-66
296.331,-96,1038,29
296.455,-81,1046,30
296.579,-56,1010,-106
296.703,-37,913,-366
296.827,9,685,-646
296.951,40,422,-878
297.075,36,133,-992
297.2,36,-88,-1048
297.323,45,-217,-1012
297.727,25,-206,-1004
297.851,1,-101,-1018
297.975,-12,142,-1009
298.099,33,457,-878
298.223,64,752,-586
298.347,73,921,-258
298.471,17,1010,24
298.595,-5,1026,128
298.719,-5,1021,132
298.843,-6,1030,17
298.967,-5,966,-217
299.092,8,802,-506
299.215,48,537,-794
299.339,60,282,-960
299.467,42,84,-1026
299.592,16,-54,-1028
300.135,-22,-105,-1029
300.259,-24,-1,-1048
300.383,9,229,-978
300.507,22,568,-710
300.634,-1,853,-372
300.755,-62,1006,-101
301.019,-92,1036,18
301.143,-66,993,-84
301.267,-38,965,-233
301.391,1,813,-492
301.516,34,649,-696
301.641,66,398,-850
301.763,26,226,-937
301.887,-5,54,-1000
302.432,-48,33,-996
302.555,-36,256,-984
302.679,2,520,-862
302.803,49,734,-621
302.927,56,874,-329
303.051,6,973,-128
303.315,-53,1044,-61
303.439,-60,1009,-184
303.563,-41,922,-390
303.691,-16,730,-630
303.815,14,512,-785
303.939,28,225,-889
304.063,9,5,-970
304.187,8,-118,-1009
304.311,-14,-108,-1020
304.855,-94,144,-970
304.979,-84,417,-900
305.103,-40,704,-725
305.227,26,868,-456
305.351,29,942,-173
305.475,-21,1020,2
305.599,-48,1038,30
305.863,-65,1006,-126
305.987,-70,896,-361
306.111,-68,680,-673
306.236,-40,445,-877
306.359,-14,201,-968
306.483,-6,16,-1004
306.607,-29,-94,-1017
306.731,-48,-121,-1009
307.276,-94,-37,-998
307.399,-106,130,-1017
307.523,-106,414,-886
307.647,-102,710,-677
307.775,-84,890,-346
307.899,-89,982,-141
308.163,-78,1036,-9
308.427,-72,1032,-22
308.551,-74,980,-162
308.675,-86,884,-414
308.8,-102,692,-758
308.925,-102,453,-929
309.047,-86,209,-1010
309.171,-68,42,-1024
309.295,-56,-49,-1018
309.839,-128,-4,-1110
309.965,-124,134,-1186
310.087,-136,368,-1121
310.211,-54,648,-745
310.335,-24,797,-330
310.459,-14,884,33
310.583,-60,890,216
310.707,-121,960,309
310.831,-158,1005,277
310.955,-153,1016,220
311.079,-150,1009,113
311.203,-86,933,-17
311.331,-2,794,-254
311.455,65,544,-520
311.579,6,392,-818
311.705,-62,229,-1026
311.831,-98,137,-1110
311.955,-50,-5,-1077
312.359,-58,-136,-1038
312.483,-73,-88,-1093
312.607,-100,152,-1024
312.731,-124,509,-764
312.856,-124,790,-328
312.978,-142,916,48
313.102,-153,932,294
313.227,-156,940,414
313.352,-133,930,433
313.475,-128,942,336
313.599,-133,942,113
313.723,-94,845,-189
313.846,-60,576,-569
313.971,-18,209,-812
314.095,-10,-132,-968
314.219,-2,-344,-980
314.343,0,-433,-985
314.467,-13,-429,-956
314.591,-29,-394,-945
314.715,-45,-313,-1018
314.839,-50,-77,-1088
314.963,-72,272,-958
315.087,-106,618,-530
315.21,-148,790,-14
315.335,-158,865,358
315.459,-164,905,452
315.587,-146,936,430
315.711,-146,940,313
315.835,-133,893,102
315.959,-94,718,-277
316.083,-38,481,-669
316.207,9,152,-945
316.331,36,-84,-1034
316.455,54,-242,-1022
316.858,20,-230,-998
316.982,-8,-113,-1089
317.106,-40,149,-1037
317.231,-68,497,-766
317.355,-112,806,-344
317.479,-126,956,-36
317.743,-132,1033,82
318.007,-104,969,-65
318.131,-42,817,-285
318.254,5,574,-578
318.379,41,220,-902
318.503,56,-45,-1057
318.627,69,-213,-1108
318.89,0,-136,-1106
319.014,-41,41,-1108
319.139,-88,329,-988
319.262,-64,612,-618
319.386,-53,840,-253
319.51,-24,932,-14
319.639,-38,1013,73
320.043,-28,1013,-5
320.167,-42,952,-138
320.29,1,705,-446
320.415,34,221,-844
320.538,78,-221,-1061
320.662,46,-456,-1132
320.786,4,-350,-1030
320.911,-32,-266,-1006
321.038,-41,-217,-972
321.161,-61,-190,-1077
321.283,-74,24,-1108
321.407,-96,385,-865
321.531,-86,730,-432
321.655,-57,889,-17
321.779,-9,930,142
321.903,6,976,176
322.026,2,1010,133
322.152,-21,974,26
322.276,-26,878,-198
322.399,-22,708,-512
322.523,13,441,-852
322.647,70,84,-1053
322.771,121,-177,-1090
322.894,121,-266,-1021
323.018,86,-213,-970
323.143,45,-186,-985
323.267,32,-150,-1041
323.391,26,-10,-1093
323.52,-20,269,-998
323.643,-76,616,-628
323.767,-96,840,-232
323.891,-65,946,42
324.015,-37,970,82
324.139,-46,998,72
324.263,-65,986,-25
324.387,-61,901,-304
324.511,-50,641,-656
324.634,-12,246,-970
324.759,-21,-22,-1105
324.883,-26,-100,-1104
325.007,-29,-44,-1048
325.131,5,-64,-1009
325.395,12,-80,-1010
325.519,-13,-34,-1042
325.643,-64,144,-1102
325.767,-48,344,-1037
325.891,-53,614,-760
326.015,-28,746,-358
326.138,-52,908,-30
326.263,-57,986,81
326.386,-64,1065,81
326.511,-32,1053,34
326.635,-14,993,-26
326.758,-33,906,-194
326.884,-28,601,-508
327.007,-10,232,-844
327.131,64,-138,-1045
327.257,61,-236,-1072
327.383,50,-209,-1013
327.786,-20,-130,-1057
327.911,0,12,-1093
328.035,25,282,-970
328.158,38,597,-648
328.283,4,830,-262
328.406,-26,933,-4
328.811,-16,958,64
328.935,5,798,-222
329.059,-10,545,-622
329.182,9,205,-953
329.307,0,-46,-1060
329.431,45,-194,-1017
329.835,-5,-225,-1058
329.959,16,-141,-1096
330.083,-20,86,-1102
330.206,-13,426,-873
330.331,-29,697,-544
330.455,2,853,-188
330.579,-6,952,10
330.843,16,977,42
330.967,28,922,-50
331.091,12,794,-330
331.215,12,542,-733
331.341,0,257,-1040
331.467,33,-12,-1090
332.151,-36,-120,-1046
332.275,-37,29,-1077
332.399,-20,289,-928
332.523,-28,614,-625
332.647,-8,833,-248
332.772,-8,950,-33
332.894,-2,1010,44
333.019,5,1028,16
333.142,1,1010,-45
333.267,-21,904,-245
333.391,-80,669,-530
333.515,-89,317,-858
333.639,-85,16,-1022
333.762,-68,-136,-1068
334.307,-125,-86,-1068
334.432,-118,129,-1092
334.554,-68,420,-890
