time,ax,ay,az
0.0,590,-78,-672
0.124,301,-57,-842
0.248,48,-74,-966
0.371,-132,-89,-977
0.635,-138,-100,-989
0.76,4,-129,-964
0.884,216,-137,-912
1.008,436,-141,-806
1.132,625,-146,-673
1.257,744,-170,-549
1.52,781,-180,-542
1.643,678,-148,-658
1.767,492,-152,-768
1.892,302,-153,-864
2.015,157,-168,-897
2.139,105,-165,-962
2.404,113,-154,-973
2.528,228,-133,-929
2.652,414,-141,-856
2.775,580,-134,-730
2.899,705,-165,-593
3.024,777,-165,-488
3.151,798,-164,-486
3.276,713,-154,-597
3.399,510,-141,-736
3.524,292,-117,-884
3.651,73,-44,-932
3.776,-41,13,-970
3.899,-80,49,-985
4.023,-40,60,-998
4.148,24,46,-1004
4.271,65,36,-962
4.396,105,50,-956
4.52,169,85,-933
4.643,286,101,-914
4.768,469,60,-826
4.892,646,22,-684
5.015,848,-46,-520
5.139,909,-93,-366
5.264,926,-136,-290
5.388,852,-160,-320
5.512,782,-193,-516
5.635,628,-200,-750
5.759,321,-117,-936
5.884,60,-57,-958
6.008,-145,-45,-997
6.132,-144,-98,-989
6.256,-105,-121,-1005
6.379,-33,-97,-986
6.503,65,-57,-965
6.628,264,-49,-938
6.752,512,-57,-781
6.879,724,-48,-610
7.003,852,-14,-460
7.268,864,-46,-478
7.391,696,-90,-642
7.515,477,-133,-806
7.639,221,-137,-932
7.763,38,-132,-962
7.888,-85,-150,-1016
8.012,-129,-166,-1009
8.415,-46,-138,-988
8.539,116,-114,-966
8.663,360,-89,-884
8.787,616,-62,-714
8.911,792,-56,-528
9.035,888,-78,-408
9.159,897,-104,-412
9.283,822,-145,-509
9.408,656,-161,-665
9.531,421,-153,-833
9.656,185,-110,-956
9.779,-1,-77,-1057
9.904,-74,-78,-1052
10.027,-94,-74,-1034
10.152,-16,-61,-981
10.275,118,-18,-932
10.399,365,-6,-850
10.523,577,-29,-686
10.648,754,-65,-550
10.895,845,-100,-449
11.02,809,-121,-504
11.143,710,-157,-590
11.267,537,-160,-718
11.391,316,-150,-866
11.516,102,-112,-958
11.639,-21,-128,-986
12.183,10,-88,-986
12.308,145,-62,-953
12.431,336,-40,-866
12.555,534,-92,-713
12.681,688,-112,-586
12.804,780,-129,-458
12.928,853,-118,-416
13.051,868,-138,-444
13.176,806,-148,-530
13.299,665,-177,-634
13.423,464,-149,-761
13.548,236,-133,-906
13.671,66,-92,-997
13.795,-25,-80,-1001
14.059,9,-48,-960
14.183,49,-33,-974
14.307,138,-24,-972
14.431,292,-34,-938
14.555,506,-72,-821
14.679,669,-112,-658
14.811,777,-126,-514
14.936,796,-118,-486
15.059,762,-105,-565
15.184,597,-90,-716
15.308,392,-45,-848
15.431,126,-24,-972
15.555,9,-1,-984
15.959,-1,-4,-974
16.083,154,44,-966
16.208,358,6,-908
16.332,574,-49,-814
16.455,697,-86,-620
16.579,765,-120,-436
16.703,769,-112,-394
16.828,801,-122,-373
16.951,810,2,-466
17.075,734,-40,-489
17.2,625,-101,-734
17.323,421,-152,-981
17.448,217,-94,-1100
17.571,-16,21,-1066
17.696,-52,49,-949
17.819,117,54,-946
17.944,402,4,-805
18.068,636,-76,-641
18.191,780,-109,-489
18.316,790,-130,-494
18.439,672,-124,-618
18.564,398,-86,-774
18.69,116,-37,-904
18.815,-117,-33,-957
18.939,-197,-65,-949
19.063,-189,-44,-982
19.187,-100,78,-1009
19.311,41,212,-1025
19.435,224,326,-958
19.559,446,377,-874
19.683,653,254,-653
19.807,805,66,-453
19.932,874,-68,-360
20.055,801,-32,-474
20.179,657,16,-672
20.304,418,20,-817
20.427,217,-29,-926
20.551,46,-42,-1030
20.675,-9,-88,-1028
20.8,-10,-82,-1021
20.923,49,-84,-949
21.048,145,-48,-952
21.172,348,-38,-908
21.295,553,-33,-742
21.419,728,-65,-513
21.543,840,-78,-340
21.668,853,-69,-349
21.791,768,-26,-501
21.915,532,-10,-693
22.039,292,-37,-857
22.163,58,-50,-958
22.287,-64,-56,-996
22.675,-85,-65,-1016
22.799,54,-56,-985
22.923,305,-85,-864
23.047,584,-121,-693
23.172,762,-168,-489
23.296,864,-176,-357
23.419,884,-189,-313
23.543,764,-214,-466
23.667,492,-169,-660
23.791,189,-146,-861
23.915,-38,-97,-929
24.04,-136,-142,-977
24.303,-120,-157,-1010
24.427,-1,-118,-981
24.551,238,-81,-904
24.676,480,-80,-734
24.8,681,-114,-574
24.923,796,-154,-473
25.187,792,-145,-534
25.311,710,-113,-621
25.435,500,-106,-757
25.559,273,-68,-857
25.683,76,-82,-933
25.807,41,-78,-996
25.931,70,-78,-1013
26.055,52,-53,-1013
26.18,42,-42,-950
26.303,136,-61,-918
26.431,317,-69,-880
26.556,572,-37,-882
26.68,661,9,-748
26.804,697,32,-657
26.927,658,13,-585
27.051,566,0,-646
27.181,386,-41,-777
27.3,134,-86,-886
27.423,22,-57,-1009
27.547,-9,-13,-1016
27.672,64,41,-1052
27.795,110,-2,-1038
27.919,200,1,-1060
28.043,261,53,-970
28.167,396,42,-756
28.291,650,-4,-634
28.415,754,46,-412
28.54,841,126,-681
28.663,354,134,-640
28.787,102,101,-1042
28.911,-245,60,-918
29.035,-129,122,-1152
29.159,-161,77,-1026
29.283,-136,90,-1037
29.407,58,80,-1004
29.531,332,134,-1056
29.655,548,101,-1004
29.779,546,109,-753
29.903,597,102,-529
30.027,674,146,-544
30.154,774,170,-733
30.279,566,146,-650
30.403,320,10,-732
30.528,28,-94,-810
30.651,-68,-140,-1030
30.776,-74,-76,-1078
30.899,1,-46,-1033
31.023,134,-76,-1065
31.147,289,-22,-1094
31.271,409,13,-1086
31.395,548,85,-1081
31.519,585,113,-872
31.644,630,96,-709
31.77,634,50,-549
31.891,685,2,-581
32.015,676,-5,-628
32.139,608,-12,-781
32.263,462,-36,-877
32.388,301,-60,-965
32.512,121,-50,-921
32.635,-28,-30,-925
32.759,-100,-4,-938
32.883,-73,-16,-1001
33.008,22,4,-986
33.131,225,-25,-953
33.255,394,-22,-866
33.379,584,-32,-798
33.923,613,41,-757
34.05,513,17,-817
34.175,328,-8,-897
34.299,132,-32,-948
34.423,-10,-17,-986
34.547,-50,9,-989
34.672,29,13,-993
34.795,153,29,-952
34.919,312,28,-893
35.043,456,25,-825
35.167,593,-2,-768
35.291,677,-4,-716
35.415,725,9,-658
35.68,709,26,-605
35.803,720,-2,-632
35.927,722,-8,-692
36.051,728,-26,-797
36.175,624,14,-856
36.299,408,29,-1000
36.423,228,8,-1029
36.547,105,-32,-1061
36.672,153,-54,-961
36.795,254,-29,-958
36.919,390,-32,-925
37.043,500,-36,-820
37.167,601,-38,-713
37.291,681,-17,-641
37.415,710,-4,-641
37.539,681,-26,-668
37.663,641,-36,-714
37.787,549,-72,-806
37.915,453,-102,-773
38.039,242,-130,-832
38.163,69,-116,-862
38.287,-128,-72,-973
38.831,-145,-78,-988
38.955,-49,-116,-949
39.081,130,-141,-904
39.204,326,-138,-840
39.328,534,-109,-797
39.451,632,-104,-748
39.575,678,-109,-690
39.839,681,-100,-681
39.963,621,-96,-722
40.088,504,-114,-784
40.211,348,-134,-844
40.335,129,-166,-986
40.459,-48,-148,-1022
40.583,-156,-148,-1044
40.847,-73,-124,-985
40.971,77,-132,-978
41.095,274,-122,-918
41.219,433,-126,-812
41.343,550,-92,-726
41.467,621,-69,-658
41.731,681,-56,-660
41.855,632,-81,-717
41.983,525,-124,-782
42.107,356,-150,-848
42.231,156,-158,-884
42.355,-36,-130,-929
42.759,-120,-92,-964
42.883,-37,-74,-964
43.007,122,-53,-944
43.131,314,-58,-890
43.255,497,-52,-824
43.379,612,-65,-752
43.644,612,-70,-748
43.767,541,-57,-781
43.891,452,-69,-853
44.015,310,-86,-894
44.139,78,-96,-942
44.263,-149,-93,-954
44.527,-252,-69,-970
44.651,-88,-72,-965
44.775,149,-74,-956
44.899,364,-100,-881
45.023,518,-106,-805
45.147,608,-122,-726
45.551,637,-49,-753
45.675,556,-44,-808
45.799,429,-64,-882
45.926,225,-88,-936
46.051,30,-102,-972
46.175,-176,-86,-974
46.719,-213,-70,-974
46.843,-97,-77,-968
46.967,80,-97,-957
47.091,237,-102,-933
47.215,408,-92,-905
47.339,500,-60,-856
47.603,504,-42,-836
47.727,426,-40,-866
47.851,308,-52,-913
47.975,77,-61,-924
48.099,-188,-54,-934
48.223,-378,-37,-936
48.347,-413,-37,-946
48.891,-264,6,-966
49.015,-165,32,-974
49.139,14,28,-972
49.263,161,-4,-953
49.387,306,-26,-942
49.511,386,-57,-901
49.641,482,-77,-873
49.759,492,-98,-846
49.883,416,-97,-868
50.01,246,-97,-889
50.135,1,-94,-928
50.259,-197,-88,-944
50.803,-268,-112,-968
50.927,-188,-113,-986
51.051,-98,-108,-966
51.175,46,-93,-958
51.299,197,-85,-922
51.423,374,-100,-898
51.547,493,-104,-830
51.671,553,-26,-780
51.795,677,-29,-717
51.919,706,-22,-680
52.043,714,-116,-712
52.168,546,-105,-792
52.291,336,-90,-877
52.415,60,-58,-905
52.539,-208,-32,-936
52.663,-341,6,-942
52.787,-316,38,-966
52.911,-192,150,-958
53.035,-48,274,-940
53.159,106,382,-884
53.283,261,425,-828
53.408,436,384,-782
53.532,594,361,-716
53.655,717,301,-658
53.779,734,266,-637
53.906,666,202,-672
54.031,533,161,-784
54.155,292,125,-828
54.279,82,93,-898
54.403,-100,40,-914
54.527,-166,-24,-977
55.055,-164,-52,-973
55.179,-80,-56,-977
55.303,53,-82,-966
55.427,186,-68,-918
55.555,314,-81,-882
55.819,401,-98,-926
55.943,306,-76,-940
56.068,162,-54,-970
56.191,-6,-42,-972
56.315,-148,-53,-994
56.859,-182,12,-984
56.983,-69,24,-985
57.107,86,20,-984
57.231,244,13,-944
57.355,392,24,-905
57.479,485,32,-856
57.603,482,30,-860
57.727,369,12,-882
57.851,173,-13,-925
57.975,-25,-37,-946
58.103,-198,-58,-962
58.227,-296,-60,-956
58.491,-264,-104,-968
58.615,-165,-136,-969
58.739,-50,-162,-966
58.863,96,-173,-926
58.987,256,-168,-885
59.111,416,-142,-797
59.235,556,-88,-738
59.359,660,-52,-676
59.624,724,-21,-624
59.748,697,-20,-672
59.871,588,-29,-738
59.995,458,-34,-841
60.119,269,-66,-894
60.243,93,-93,-938
60.367,-88,-96,-954
60.491,-220,-84,-957
60.615,-308,-68,-960
61.019,-273,-64,-965
61.143,-133,-96,-948
61.267,60,-114,-920
61.391,293,-120,-849
61.515,500,-113,-760
61.639,705,-105,-653
61.763,812,-110,-548
62.03,829,-121,-505
62.155,790,-138,-550
62.279,704,-174,-605
62.403,609,-245,-680
62.527,460,-260,-772
62.651,270,-256,-860
62.775,40,-204,-918
62.899,-141,-185,-950
63.304,-209,-120,-946
63.427,-128,-121,-934
63.551,40,-117,-916
63.675,253,-108,-866
63.799,505,-78,-797
63.923,678,-52,-686
64.047,784,-44,-605
64.311,786,-48,-648
64.435,704,-37,-730
64.559,550,-38,-822
64.683,344,-54,-877
64.807,69,-72,-909
64.931,-160,-110,-940
65.475,-278,-5,-985
65.599,-197,85,-1010
65.723,-72,166,-1000
65.847,124,184,-953
65.971,368,178,-854
66.099,576,141,-729
66.223,721,113,-642
66.347,761,88,-632
66.471,737,101,-697
66.595,609,82,-768
66.719,422,36,-854
66.843,194,-64,-922
66.971,-28,-133,-977
67.655,-173,-173,-949
67.779,-92,-152,-898
67.903,69,-144,-845
68.028,301,-117,-745
68.151,540,-60,-708
68.275,721,-2,-640
68.399,800,17,-609
68.523,781,-2,-581
68.647,726,-13,-626
68.771,681,-57,-738
68.895,566,-81,-838
69.019,338,-121,-921
69.143,72,-110,-957
69.267,-217,-100,-970
69.391,-317,-104,-928
69.515,-385,-98,-917
69.639,-270,-121,-906
69.903,-194,-89,-942
70.029,-150,-74,-972
70.155,-48,-20,-956
70.279,74,25,-909
70.403,281,62,-830
70.527,517,89,-732
70.651,714,98,-646
70.915,770,125,-572
71.039,692,126,-648
71.163,520,81,-753
71.287,217,49,-864
71.411,-73,-6,-929
72.235,-217,42,-961
72.359,-121,36,-953
72.483,94,6,-906
72.608,357,-21,-813
72.731,621,-36,-713
72.855,748,-38,-632
72.979,793,-22,-640
73.103,713,-24,-696
73.227,541,-45,-798
73.351,230,-50,-889
73.475,-65,-52,-932
73.599,-260,-38,-960
73.723,-278,-48,-961
73.847,-225,-44,-985
74.114,-124,-13,-981
74.239,-85,1,-960
74.363,101,12,-929
74.487,384,20,-860
74.611,693,-5,-760
74.735,805,6,-653
74.859,846,-10,-664
75.123,788,33,-774
75.247,642,21,-792
75.371,468,-2,-857
75.495,250,-65,-944
75.619,-12,-56,-950
75.743,-177,-45,-962
75.867,-266,-10,-728
75.991,-150,-8,-780
76.115,-78,-30,-780
76.239,-6,-58,-989
76.363,-2,-137,-960
76.487,90,-136,-914
76.611,229,-158,-872
76.735,416,-142,-858
76.859,546,-161,-821
76.984,649,-158,-760
77.247,702,-138,-722
77.371,594,-117,-769
77.495,437,-114,-872
77.619,240,-125,-906
77.747,45,-120,-957
77.871,-106,-122,-970
78.54,-69,-69,-976
78.667,152,-54,-958
78.791,420,-13,-910
78.915,628,22,-836
79.039,697,52,-754
79.303,661,58,-688
79.427,613,68,-710
79.551,536,74,-754
79.675,438,72,-816
79.799,334,58,-894
79.923,150,36,-952
80.047,-9,29,-1000
80.731,-96,92,-1008
80.855,8,96,-1001
80.979,189,53,-946
81.103,433,24,-853
81.227,613,4,-753
81.491,704,17,-716
81.616,666,28,-746
81.739,570,0,-757
81.863,449,-28,-809
81.986,242,-76,-861
82.111,0,-90,-920
82.238,-157,-108,-953
82.783,-116,-145,-956
82.907,10,-165,-954
83.031,202,-164,-904
83.155,398,-133,-858
83.279,548,-106,-761
83.543,650,-74,-706
83.667,620,-68,-722
83.791,540,-90,-746
83.915,402,-97,-796
84.04,233,-104,-886
84.163,46,-82,-966
84.287,-112,-84,-989
84.971,-149,-124,-984
85.095,-48,-153,-969
85.219,81,-164,-945
85.343,256,-168,-886
85.467,416,-168,-832
85.591,556,-185,-772
85.715,617,-153,-740
85.839,589,-144,-736
85.963,525,-125,-769
86.087,421,-144,-824
86.211,294,-145,-897
86.335,138,-152,-944
86.463,-13,-148,-976
86.587,-116,-128,-977
86.991,-217,-49,-1006
87.115,-212,-30,-994
87.239,-97,-24,-924
87.362,45,40,-937
87.487,177,53,-920
87.611,246,92,-932
87.735,336,14,-876
87.859,436,0,-900
87.983,502,-21,-877
88.107,566,-36,-825
88.231,613,-26,-740
88.355,697,-42,-718
88.619,712,-26,-725
88.743,565,-50,-745
88.867,382,-81,-832
88.991,134,-130,-896
89.115,-13,-132,-962
89.659,-78,-174,-993
89.923,93,-200,-961
90.047,193,-157,-913
90.171,394,-133,-805
90.295,598,-126,-740
90.662,682,-136,-664
90.787,616,-145,-734
90.911,460,-190,-792
91.035,258,-234,-869
91.159,-53,-246,-896
91.423,-306,-206,-929
91.827,-240,-118,-962
91.951,-200,-72,-965
92.075,-137,6,-982
92.199,6,68,-958
92.323,248,94,-934
92.446,482,94,-821
92.571,653,80,-745
92.975,677,72,-705
93.099,574,68,-768
93.223,408,80,-862
93.346,190,72,-928
93.471,-24,48,-980
93.595,-156,13,-988
93.719,-210,-28,-992
93.983,-165,-68,-977
94.107,-118,-57,-973
94.23,-40,-45,-973
94.355,64,-52,-961
94.479,249,-52,-912
94.605,444,-72,-822
94.73,616,-77,-734
94.855,689,-92,-686
94.978,697,-100,-674
95.103,661,-133,-704
95.227,584,-142,-761
95.351,428,-165,-828
95.475,248,-178,-897
95.598,64,-198,-948
95.723,-30,-193,-977
96.407,-105,-105,-994
96.531,-33,-92,-944
96.655,310,-110,-940
96.778,548,-106,-856
96.902,774,-89,-797
97.027,722,-68,-669
97.151,754,-60,-662
97.275,684,-82,-660
97.398,614,-76,-728
97.523,472,-81,-769
97.647,277,-60,-921
97.77,73,-61,-973
97.895,-97,-48,-1018
98.579,-48,-29,-960
98.703,133,-18,-944
98.831,369,-8,-885
98.955,573,-12,-792
99.079,705,-25,-748
99.203,758,-36,-685
99.327,746,-44,-702
99.451,670,-96,-673
99.575,568,-142,-749
99.698,394,-197,-808
99.823,197,-182,-880
99.946,-17,-193,-916
100.071,-126,-194,-945
100.599,-128,-225,-964
100.723,-48,-232,-969
100.846,44,-228,-944
100.971,154,-218,-900
101.099,308,-189,-832
101.223,489,-165,-780
101.347,618,-150,-717
101.751,640,-154,-689
101.875,596,-186,-744
101.999,506,-216,-797
102.123,344,-222,-854
102.247,150,-198,-898
102.371,-57,-146,-956
102.495,-186,-110,-980
103.163,-186,-86,-962
103.287,-85,-74,-970
103.411,94,-78,-954
103.534,296,-53,-930
103.659,504,-52,-837
103.783,640,-32,-742
104.047,686,-22,-660
104.171,653,-20,-702
104.295,572,-30,-749
104.419,442,-37,-825
104.543,256,-77,-881
104.667,40,-88,-954
104.791,-149,-85,-978
105.335,-202,-62,-981
105.458,-128,-50,-1012
105.582,-6,-41,-1001
105.706,164,-21,-964
105.83,364,-33,-881
105.955,518,-37,-794
106.078,620,-44,-729
106.343,638,-44,-720
106.466,573,-70,-789
106.591,436,-65,-862
106.714,245,-74,-932
106.839,36,-72,-973
106.966,-125,-77,-982
107.651,-136,-17,-1006
107.775,-21,10,-1028
107.899,168,21,-976
108.022,389,16,-908
108.147,568,1,-800
108.41,660,-24,-720
108.535,620,-13,-746
108.658,529,-17,-781
108.782,453,-25,-866
108.906,242,-41,-945
109.031,82,-45,-996
109.854,4,-134,-941
109.978,162,-109,-916
110.102,373,-93,-869
110.226,589,-65,-781
110.351,710,-61,-688
110.615,742,-30,-605
110.738,705,-16,-665
110.863,593,-36,-720
110.986,464,-53,-809
111.111,270,-89,-866
111.238,98,-100,-934
111.362,-48,-98,-969
111.487,-121,-72,-982
111.61,-136,-30,-993
112.154,-28,68,-960
112.278,113,80,-926
112.402,336,84,-878
112.526,552,100,-784
112.651,681,117,-685
112.914,705,110,-676
113.039,622,69,-750
113.163,469,29,-829
113.286,225,10,-893
113.414,48,-9,-945
113.538,-108,-40,-969
114.222,-69,-37,-984
114.346,70,-57,-978
114.474,260,-98,-893
114.598,458,-117,-805
114.723,596,-116,-702
114.846,676,-109,-657
114.971,713,-89,-670
115.095,660,-97,-692
115.219,556,-74,-768
115.342,358,-104,-832
115.471,125,-93,-936
115.595,-37,-94,-988
116.278,-29,-46,-976
116.402,89,-52,-936
116.527,282,-58,-890
116.651,464,-68,-793
116.774,612,-66,-726
116.899,689,-81,-692
117.022,670,-74,-701
117.146,617,-72,-758
117.27,472,-48,-806
117.394,334,-36,-890
117.518,93,-33,-930
117.642,-76,-46,-973
118.046,-209,-24,-998
118.31,-213,-46,-984
118.435,-118,-80,-966
118.559,96,-104,-933
118.682,340,-106,-876
118.806,564,-102,-785
118.93,665,-88,-693
119.194,628,-76,-710
119.318,520,-65,-784
119.442,384,-32,-889
119.57,180,-8,-938
119.694,-4,28,-988
119.819,-192,49,-980
120.082,-262,48,-994
120.206,-224,42,-981
120.47,-86,48,-953
120.594,141,36,-942
120.719,413,36,-868
120.842,605,6,-758
120.966,673,-21,-662
121.091,669,-69,-609
121.214,692,-61,-653
121.338,621,-58,-685
121.462,516,-24,-786
121.587,226,-33,-873
121.71,-28,-13,-953
122.114,-158,64,-981
122.238,-129,56,-1028
122.362,-74,22,-969
122.487,185,-40,-984
122.61,386,-77,-820
122.734,625,-96,-800
122.858,673,-114,-624
122.983,760,-112,-612
123.386,729,-90,-624
123.51,678,-64,-653
123.638,618,-5,-710
123.762,556,-60,-808
123.886,461,-50,-874
124.01,346,-70,-902
124.135,232,-34,-906
124.258,153,-28,-941
124.382,60,-50,-968
124.506,-80,-28,-978
124.77,-218,-57,-969
124.894,-148,-32,-965
125.018,-33,-32,-965
125.142,152,-14,-910
125.267,381,-46,-842
125.39,590,-45,-742
125.514,724,-40,-678
125.778,722,-41,-648
125.902,654,-56,-721
126.026,526,-41,-806
126.15,325,-41,-905
126.275,49,-26,-957
126.401,-141,-42,-986
127.082,-109,-73,-977
127.207,90,-88,-934
127.331,340,-78,-854
127.455,576,-44,-770
127.578,689,-30,-692
127.831,758,-37,-361
127.954,688,-28,-430
128.078,546,-29,-541
128.202,269,-33,-898
128.327,25,-28,-960
128.45,-160,-20,-973
129.275,-101,-26,-985
129.399,-9,-44,-986
129.522,114,-61,-950
129.646,322,-86,-877
129.77,497,-72,-797
129.894,648,-69,-749
130.159,633,-64,-753
130.282,520,-69,-776
130.406,378,-69,-861
130.53,213,-72,-910
130.654,54,-66,-961
130.778,-80,-61,-961
131.182,-172,-117,-985
131.306,-124,-196,-976
131.43,-60,-249,-954
131.554,38,-297,-926
131.678,173,-284,-885
131.805,360,-285,-842
131.93,529,-253,-746
132.054,682,-228,-670
132.318,773,-162,-622
132.442,704,-164,-690
132.567,580,-162,-793
132.691,401,-142,-869
132.815,204,-120,-928
132.938,29,-97,-958
133.762,-48,-33,-986
133.887,69,-33,-978
134.01,225,-56,-934
134.134,417,-82,-877
134.258,548,-110,-773
134.382,666,-114,-721
134.646,662,-116,-750
134.77,497,-129,-809
134.894,250,-125,-897
135.018,41,-116,-938
135.843,-42,-121,-994
135.966,84,-140,-961
136.09,268,-161,-896
136.219,456,-172,-797
136.342,608,-182,-706
136.466,712,-188,-636
136.73,708,-193,-666
136.854,577,-189,-757
136.978,344,-169,-874
137.103,116,-129,-950
137.226,-74,-89,-980
137.35,-161,-64,-973
138.034,-101,-90,-974
138.158,-8,-106,-960
138.282,152,-134,-914
138.407,333,-154,-846
138.531,525,-161,-741
138.657,680,-161,-662
138.918,732,-157,-649
139.046,602,-152,-734
139.17,401,-141,-821
139.294,226,-144,-904
139.418,81,-128,-937
139.543,-21,-110,-977
139.666,-124,-74,-988
139.79,-204,-62,-1000
140.194,-189,-66,-988
140.321,-110,-93,-976
140.446,-2,-120,-966
140.57,160,-106,-940
140.694,369,-82,-856
140.819,628,-34,-744
140.942,778,-21,-610
141.206,764,-25,-613
141.33,594,-25,-728
141.454,338,-38,-842
141.578,64,-64,-913
141.702,-120,-73,-952
142.386,-141,-61,-984
142.51,-4,-66,-962
142.635,201,-70,-909
142.758,449,-41,-830
142.882,580,16,-840
143.006,688,16,-781
143.13,686,-4,-757
143.254,698,-52,-693
143.379,610,-42,-758
143.503,450,-42,-834
143.626,214,-36,-892
143.75,-10,-44,-942
143.874,-162,-45,-964
144.682,-165,-64,-978
144.806,-113,-86,-982
144.93,-5,-112,-969
145.054,164,-125,-938
145.178,369,-113,-873
145.302,561,-85,-781
145.426,694,-25,-713
145.55,737,-10,-652
145.674,740,8,-673
145.798,649,-17,-693
145.922,545,-25,-780
146.046,285,-52,-846
146.17,46,-72,-928
146.994,-104,-77,-985
147.118,93,-108,-962
147.242,354,-118,-905
147.366,573,-130,-780
147.49,696,-110,-701
147.754,682,-80,-725
147.878,528,-73,-796
148.002,306,-66,-860
148.126,76,-70,-910
148.25,-80,-80,-948
149.058,-84,-109,-980
149.182,48,-114,-966
149.306,246,-118,-921
149.43,478,-88,-842
149.554,652,-96,-738
149.818,718,-108,-665
149.942,618,-101,-758
150.067,414,-98,-838
150.19,170,-88,-913
150.314,-21,-82,-932
150.858,-129,-45,-988
151.262,-22,-70,-993
151.386,161,-78,-954
151.51,418,-69,-854
151.634,632,-40,-733
151.758,754,-12,-652
151.882,758,-5,-628
152.006,698,-16,-685
152.13,573,-21,-774
152.254,388,-30,-860
152.378,180,-41,-930
152.503,-25,-64,-956
152.626,-133,-64,-981
153.274,-154,-58,-984
153.398,-74,-62,-986
153.522,29,-58,-961
153.646,272,-50,-934
153.77,508,-38,-832
153.894,686,-60,-860
154.018,768,-70,-796
154.142,722,-64,-804
154.266,684,-37,-760
154.39,505,-36,-821
154.514,258,-36,-893
154.638,-26,-34,-942
155.602,-118,-58,-980
155.726,8,-102,-965
155.85,196,-128,-917
155.975,413,-158,-834
156.098,600,-140,-769
156.222,701,-126,-692
156.346,694,-88,-686
156.47,612,-78,-717
156.598,457,-94,-820
156.722,218,-104,-885
156.846,-5,-117,-936
157.934,-53,-90,-1000
158.058,82,-97,-970
158.182,290,-82,-896
158.308,538,-70,-789
158.43,697,-50,-690
158.694,717,-69,-697
158.818,578,-85,-760
158.942,346,-110,-808
159.066,121,-133,-874
159.19,-80,-129,-933
159.314,-182,-94,-977
159.858,-181,-85,-986
159.982,-101,-108,-978
160.106,-12,-125,-973
160.23,145,-137,-904
160.354,350,-106,-856
160.478,541,-118,-788
160.602,592,-124,-769
160.726,478,-162,-780
160.85,277,-164,-856
160.974,62,-154,-933
161.098,-105,-148,-989
161.222,-162,-54,-1048
161.346,-154,-62,-1069
161.474,-130,-80,-1053
162.578,56,-145,-969
162.702,178,-156,-906
162.826,389,-144,-896
162.95,534,-129,-786
163.074,620,-109,-768
163.198,604,-112,-724
163.322,573,-128,-782
163.446,521,-113,-849
163.57,412,-106,-924
163.694,162,-105,-942
163.818,24,-166,-1224
163.942,-140,-161,-1186
164.066,-113,-138,-1188
164.19,-126,-53,-966
164.314,-26,12,-1020
164.438,50,0,-914
164.562,238,-108,-824
164.686,402,-176,-724
164.81,614,-238,-702
164.934,685,-226,-584
165.198,634,-285,-641
165.322,458,-286,-813
165.447,153,-272,-937
165.573,-89,-257,-942
165.698,-329,-204,-913
165.822,-414,-204,-914
165.946,-400,-189,-877
166.07,-213,-182,-936
166.194,81,-149,-917
166.318,306,-182,-858
166.442,480,-230,-737
166.566,513,-282,-710
166.69,558,-281,-777
166.814,422,-294,-766
166.938,233,-292,-816
167.062,76,-318,-841
167.466,102,-297,-920
167.59,268,-270,-857
167.714,442,-265,-785
168.118,528,-286,-738
168.242,468,-280,-784
168.366,348,-266,-821
168.49,174,-228,-890
168.614,-252,-230,-828
168.739,-437,-180,-857
168.862,-538,-193,-842
168.986,-302,-146,-957
169.11,-157,-165,-984
169.234,68,-154,-986
169.358,266,-186,-933
169.485,396,-210,-865
169.61,432,-236,-816
169.734,429,-232,-840
169.858,326,-212,-880
169.982,160,-226,-945
170.106,-12,-208,-937
170.23,-200,-192,-916
170.354,-314,-133,-882
170.618,-337,-164,-925
170.742,-268,-185,-925
170.866,-65,-230,-905
170.99,141,-288,-882
171.114,326,-349,-838
171.518,374,-362,-832
171.642,249,-334,-856
171.766,-8,-297,-896
171.89,-293,-250,-916
172.014,-472,-188,-920
172.138,-494,-129,-932
172.262,-370,-133,-973
172.386,-152,-233,-960
172.51,132,-321,-878
172.634,368,-350,-785
172.758,516,-296,-728
173.022,537,-288,-728
173.146,470,-284,-760
173.27,261,-232,-818
173.397,-20,-193,-872
173.522,-309,-161,-934
173.646,-406,-166,-940
173.91,-330,-158,-938
174.034,-246,-158,-966
174.158,-110,-182,-958
174.282,14,-225,-944
174.406,142,-253,-902
174.53,224,-246,-916
174.934,261,-202,-917
175.058,165,-185,-960
175.182,-16,-164,-978
175.306,-196,-149,-974
175.43,-320,-145,-956
175.694,-320,-142,-952
176.659,-182,-89,-986
177.762,-132,-58,-986
177.886,-209,-37,-974
178.014,-289,-13,-925
178.138,-329,-28,-922
178.262,-233,-85,-949
178.386,-58,-162,-970
178.51,221,-220,-881
178.634,432,-250,-782
178.758,584,-264,-690
179.021,620,-236,-686
179.146,516,-186,-754
179.27,334,-189,-809
179.394,70,-202,-893
179.518,-144,-213,-930
179.641,-276,-162,-992
179.906,-262,-76,-1017
180.03,-177,-69,-1021
180.154,-66,-148,-1121
180.278,193,-208,-1000
180.402,402,-230,-880
180.525,578,-165,-712
180.65,568,-132,-750
180.773,541,-113,-801
180.898,456,-80,-845
181.021,281,-48,-928
181.146,69,-12,-989
181.27,-80,8,-1026
181.814,-70,54,-996
181.94,80,34,-964
182.065,229,40,-929
182.19,384,12,-877
182.314,442,38,-854
182.578,442,61,-862
182.702,314,54,-900
182.825,102,40,-950
182.949,-146,46,-984
183.074,-310,46,-988
183.198,-341,70,-957
183.322,-300,38,-952
183.446,-229,20,-968
183.57,-106,-13,-982
183.693,96,-66,-930
183.818,321,-97,-853
183.942,481,-149,-802
184.346,505,-73,-797
184.469,401,-42,-858
184.593,226,-48,-910
184.718,45,-85,-872
184.842,-76,-92,-870
184.966,-162,-84,-894
185.09,-200,-53,-976
185.354,-156,-53,-1004
185.478,5,-86,-957
185.602,228,-110,-894
185.726,434,-137,-788
185.85,564,-138,-753
186.398,417,-186,-766
186.522,140,-194,-830
186.649,-186,-188,-906
186.774,-349,-166,-948
187.318,-318,-156,-933
187.442,-200,-185,-974
187.566,9,-269,-1020
187.69,197,-274,-969
188.233,289,-265,-886
188.358,190,-297,-889
188.482,41,-317,-898
188.606,-108,-302,-916
189.15,-222,-197,-949
189.273,-158,-166,-972
189.398,24,-150,-978
189.522,253,-144,-952
189.646,470,-148,-842
190.05,514,-146,-825
190.174,309,-200,-865
190.3,25,-300,-873
190.426,-241,-384,-845
190.55,-366,-438,-821
190.674,-369,-440,-818
190.797,-297,-462,-817
190.922,-208,-490,-824
191.045,-113,-560,-816
191.17,-2,-614,-765
191.293,124,-628,-710
191.418,212,-610,-706
191.962,198,-490,-788
192.085,78,-477,-781
192.21,-142,-418,-793
192.334,-302,-382,-826
192.597,-370,-316,-856
192.722,-358,-308,-904
192.846,-258,-272,-957
192.97,-101,-273,-966
193.094,106,-285,-924
193.637,218,-294,-908
193.762,57,-288,-905
193.886,-140,-284,-884
194.009,-326,-242,-872
194.274,-368,-162,-932
194.4,-189,-188,-958
194.526,36,-172,-948
194.65,241,-174,-932
194.913,298,-148,-937
195.037,188,-176,-961
195.162,-5,-217,-953
195.286,-221,-246,-930
195.409,-369,-276,-886
195.954,-308,-286,-930
196.078,-138,-232,-976
196.202,77,-210,-982
196.326,293,-230,-916
196.45,405,-252,-845
196.573,438,-226,-802
196.698,353,-274,-788
196.821,194,-312,-836
196.946,-50,-372,-884
197.07,-264,-325,-921
197.193,-426,-272,-876
197.458,-450,-228,-838
197.581,-357,-253,-873
197.705,-154,-288,-900
197.829,84,-294,-857
197.953,320,-326,-786
198.078,410,-328,-768
198.342,376,-336,-830
198.47,316,-321,-852
198.593,180,-304,-918
198.718,56,-304,-928
198.842,-114,-305,-918
198.965,-284,-278,-886
199.089,-388,-237,-857
199.214,-398,-173,-888
199.338,-336,-136,-920
199.601,-269,-124,-969
199.725,-258,-116,-1010
199.849,-164,-180,-1046
199.974,-4,-237,-1013
200.097,253,-306,-848
200.221,402,-346,-757
200.345,492,-393,-700
200.469,472,-414,-713
200.594,377,-453,-744
200.718,220,-453,-801
200.842,5,-414,-876
200.966,-165,-334,-892
201.09,-298,-278,-901
201.494,-346,-196,-934
201.618,-301,-142,-960
201.745,-193,-165,-981
201.87,-44,-181,-972
202.001,152,-274,-889
202.118,318,-316,-794
202.245,452,-388,-730
202.649,365,-380,-724
202.773,177,-409,-792
202.898,-64,-385,-841
203.022,-246,-337,-918
203.705,-274,-237,-928
203.829,-185,-290,-909
203.953,-72,-326,-894
204.078,140,-344,-858
204.201,302,-340,-824
204.325,442,-366,-740
204.449,488,-401,-696
204.714,430,-456,-730
204.838,264,-424,-752
204.962,26,-344,-809
205.085,-198,-272,-881
205.21,-274,-241,-878
205.333,-252,-197,-912
205.457,-166,-170,-902
205.721,-89,-180,-989
205.845,-101,-164,-998
205.969,-86,-161,-1022
206.093,24,-153,-1010
206.217,268,-206,-924
206.344,538,-246,-748
206.47,720,-244,-606
206.734,730,-209,-584
206.857,554,-164,-696
206.981,281,-89,-860
207.105,4,-65,-968
207.929,62,-88,-1009
208.053,221,-130,-928
208.177,422,-156,-813
208.301,602,-178,-664
208.425,726,-184,-592
208.689,750,-213,-572
208.814,661,-204,-661
208.939,457,-205,-772
209.061,173,-158,-896
209.185,-90,-108,-960
209.449,-228,-90,-970
209.573,-141,-126,-970
209.698,-78,-188,-1037
209.822,172,-253,-949
209.945,404,-345,-777
210.069,677,-365,-521
210.334,780,-356,-432
210.457,756,-362,-465
210.585,676,-386,-550
210.709,518,-366,-642
210.833,325,-349,-769
210.957,125,-265,-876
211.081,-20,-221,-933
211.206,-64,-170,-961
211.329,-44,-149,-950
211.593,74,-157,-957
211.717,258,-161,-901
211.841,528,-201,-717
211.965,712,-213,-565
212.089,804,-256,-480
212.213,768,-274,-532
212.337,618,-268,-640
212.461,368,-252,-757
212.585,133,-193,-890
212.71,-24,-146,-981
212.833,-102,-125,-1017
212.957,-136,-124,-994
213.081,-126,-129,-957
213.485,0,-89,-857
213.61,138,-126,-817
213.733,338,-189,-709
213.857,522,-272,-662
213.981,673,-301,-524
214.245,741,-290,-510
214.369,589,-220,-648
214.497,353,-185,-816
214.622,70,-134,-941
214.745,-148,-96,-1010
215.009,-226,-76,-1017
215.413,-136,-101,-977
215.537,-45,-128,-962
215.661,185,-190,-890
215.785,437,-249,-760
215.909,665,-294,-577
216.033,769,-314,-445
216.157,797,-361,-370
216.281,717,-338,-446
216.405,526,-294,-638
216.529,250,-178,-842
216.655,10,-118,-966
216.918,-90,-97,-957
217.041,-40,-114,-950
217.305,45,-128,-953
217.429,154,-161,-954
217.553,340,-274,-850
217.678,516,-357,-685
217.801,654,-434,-465
217.925,724,-452,-345
218.189,726,-449,-381
218.313,621,-393,-593
218.439,385,-306,-820
218.566,121,-229,-957
218.69,-86,-178,-978
219.233,-133,-140,-974
219.481,-62,-114,-986
219.605,53,-149,-984
219.73,261,-210,-870
219.853,473,-290,-690
219.982,650,-313,-545
220.245,749,-294,-541
220.369,685,-281,-593
220.494,574,-282,-706
220.617,382,-265,-806
220.741,158,-240,-906
220.865,-33,-197,-970
220.989,-145,-185,-1005
221.393,-120,-157,-972
221.937,49,-153,-988
222.061,225,-161,-906
222.185,468,-142,-758
222.309,697,-142,-584
222.573,797,-138,-509
222.697,670,-94,-613
222.824,433,-128,-753
222.949,141,-138,-896
223.073,-33,-161,-1002
223.197,-137,-169,-1030
223.601,-198,-166,-1036
223.726,-186,-157,-1018
223.849,-153,-156,-988
223.973,-66,-156,-992
224.097,98,-188,-918
224.221,340,-297,-880
224.345,517,-266,-764
224.469,578,-208,-748
224.593,546,-61,-729
224.717,533,-81,-801
224.841,413,-154,-832
224.965,234,-216,-868
225.089,26,-224,-932
225.213,-97,-196,-977
225.337,-173,-176,-973
225.461,-172,-188,-945
225.585,-93,-161,-965
225.709,-5,-130,-976
225.834,54,-116,-1008
225.957,125,-154,-956
226.081,253,-188,-861
226.205,400,-188,-780
226.329,490,-162,-714
226.453,577,-176,-700
226.577,632,-192,-674
226.705,568,-234,-730
226.829,321,-260,-889
226.953,50,-264,-986
227.077,-77,-242,-1018
227.201,-90,-210,-925
227.325,-82,-214,-925
227.449,-80,-201,-976
227.573,32,-174,-1045
227.697,86,-165,-1037
227.821,90,-170,-997
228.085,14,-206,-936
228.209,132,-230,-888
228.333,357,-169,-848
228.457,606,-124,-758
228.581,746,-110,-544
228.705,802,-190,-316
228.829,836,-216,-172
228.953,861,-214,-221
229.077,776,-229,-374
229.201,596,-254,-477
229.325,350,-222,-682
229.449,180,-149,-822
229.713,33,-62,-1010
229.977,32,-112,-989
230.381,153,-128,-964
230.505,238,-132,-954
230.632,398,-136,-856
230.757,588,-142,-673
230.881,749,-162,-457
231.146,826,-209,-406
231.269,746,-209,-533
231.393,561,-224,-708
231.517,352,-145,-906
231.641,129,-86,-989
231.765,-14,-50,-1041
231.89,-61,-42,-998
232.013,-38,-68,-962
232.277,40,-89,-902
232.401,89,-77,-953
232.525,208,-86,-934
232.649,398,-98,-842
232.773,614,-126,-678
232.897,772,-154,-536
233.161,802,-232,-506
233.285,677,-260,-608
233.409,504,-273,-726
233.533,312,-198,-821
233.657,122,-141,-894
233.781,22,-106,-949
234.185,-24,-208,-1254
234.309,90,-202,-1234
234.433,316,-212,-1125
234.557,605,-218,-688
234.685,750,-262,-534
234.949,792,-293,-497
235.073,625,-344,-561
235.197,345,-280,-718
235.321,65,-209,-869
235.585,-37,-117,-970
235.849,44,-128,-992
235.973,116,-121,-1000
236.097,321,-130,-942
236.221,568,-174,-728
236.345,766,-176,-508
236.469,864,-157,-338
236.593,861,-137,-316
236.717,744,-168,-416
236.841,506,-228,-594
236.965,253,-278,-788
237.089,41,-252,-882
237.213,-5,-206,-928
237.477,21,-185,-966
239.144,10,-198,-974
239.269,40,-226,-1013
239.393,153,-269,-974
239.517,326,-280,-901
239.641,480,-296,-733
239.765,582,-289,-665
239.889,617,-288,-640
240.013,522,-260,-725
240.137,266,-228,-830
240.261,-22,-216,-905
240.385,-192,-201,-917
240.509,-168,-185,-921
240.633,-97,-161,-941
240.758,-25,-157,-1041
240.881,70,-146,-1024
241.005,293,-144,-933
241.129,550,-144,-725
241.253,728,-166,-596
241.377,738,-164,-596
241.501,600,-165,-710
241.625,317,-165,-849
241.75,54,-185,-928
241.873,-116,-180,-938
241.997,-138,-180,-956
242.401,-41,-206,-990
242.525,92,-225,-953
242.649,294,-257,-880
242.773,438,-268,-788
242.897,548,-288,-734
243.165,561,-281,-722
243.289,516,-249,-762
243.413,433,-226,-846
243.537,290,-190,-925
243.661,137,-164,-978
243.785,30,-145,-985
244.313,89,-169,-969
244.437,254,-156,-882
244.561,452,-156,-749
244.685,626,-186,-656
245.213,637,-178,-684
245.337,612,-158,-721
245.461,544,-152,-752
245.585,420,-128,-806
245.709,232,-113,-878
245.834,88,-89,-953
246.237,62,-109,-972
246.361,137,-108,-972
246.485,208,-94,-969
246.609,301,-97,-933
246.733,382,-98,-890
246.857,478,-129,-828
246.981,538,-140,-793
247.228,492,-166,-784
247.353,345,-208,-833
247.477,168,-265,-880
247.601,68,-284,-938
247.725,4,-292,-954
247.989,-38,-226,-978
248.253,9,-205,-992
248.377,72,-208,-960
248.501,214,-189,-905
248.626,396,-128,-814
248.749,556,-117,-748
249.013,613,-166,-700
249.137,530,-189,-773
249.261,313,-202,-828
249.385,80,-205,-913
249.509,-101,-146,-913
249.913,-40,-153,-950
250.037,0,-174,-969
250.161,21,-200,-996
250.285,13,-122,-914
250.409,-53,-98,-896
250.533,74,-16,-844
250.657,264,-53,-878
250.781,522,-97,-798
250.905,618,-224,-713
251.029,628,-265,-698
251.154,569,-205,-761
251.281,488,-146,-897
251.405,257,-98,-958
251.529,82,-126,-993
251.653,-90,-141,-984
251.777,-77,-185,-974
251.901,-42,-202,-972
252.165,49,-240,-1021
252.289,78,-228,-994
252.413,109,-216,-952
252.537,178,-250,-860
252.661,294,-246,-834
252.785,460,-268,-812
252.909,545,-229,-733
253.033,617,-257,-656
253.157,538,-236,-654
253.281,396,-186,-840
253.405,168,-144,-930
253.529,36,-78,-1038
253.653,26,-81,-985
253.778,21,-102,-1016
254.181,52,-153,-982
254.305,121,-177,-980
254.569,216,-213,-957
254.693,324,-229,-906
254.817,414,-270,-845
255.081,418,-322,-802
255.211,318,-300,-857
255.337,170,-300,-898
255.461,58,-246,-946
255.729,93,-190,-878
255.853,138,-202,-874
255.977,241,-216,-873
256.101,322,-225,-904
256.225,468,-222,-814
256.349,569,-228,-714
256.613,570,-248,-736
256.737,393,-250,-861
256.861,165,-261,-949
257.125,-38,-240,-957
257.249,10,-242,-944
257.513,88,-253,-910
257.637,148,-258,-925
257.761,269,-266,-898
257.885,438,-242,-824
258.009,522,-261,-770
258.133,533,-273,-758
258.257,441,-301,-773
258.381,273,-256,-860
258.505,121,-225,-922
258.769,32,-252,-988
258.893,50,-240,-993
259.017,92,-230,-968
259.141,262,-197,-858
259.269,390,-277,-744
259.393,540,-322,-748
259.517,502,-353,-793
259.641,393,-272,-890
259.765,113,-212,-922
260.029,-68,-168,-978
260.153,22,-198,-981
260.277,64,-194,-994
260.401,157,-218,-1001
260.525,326,-238,-930
260.649,508,-269,-764
260.773,686,-262,-600
261.037,762,-228,-540
261.169,674,-214,-634
261.285,513,-165,-794
261.409,373,-178,-904
261.533,234,-180,-966
261.657,162,-200,-980
261.781,92,-189,-974
262.045,57,-218,-952
262.169,116,-228,-964
262.293,236,-212,-941
262.417,389,-194,-840
262.541,577,-192,-684
262.665,694,-197,-553
262.929,732,-192,-524
263.053,669,-193,-605
263.18,566,-177,-686
263.305,394,-192,-829
263.429,253,-178,-900
263.553,133,-169,-974
263.817,200,-97,-957
263.941,282,-105,-936
264.065,397,-132,-886
264.189,488,-214,-781
264.313,586,-258,-680
264.438,636,-264,-649
264.561,594,-245,-685
264.685,494,-222,-786
264.809,337,-212,-865
264.933,208,-204,-929
265.057,84,-177,-949
265.321,8,-202,-964
265.445,40,-213,-964
265.569,53,-185,-965
265.693,164,-126,-989
265.817,302,-149,-953
265.941,510,-182,-794
266.065,676,-221,-626
266.329,676,-190,-608
266.453,488,-148,-749
266.577,242,-80,-890
266.701,77,-93,-930
266.825,8,-110,-966
267.213,9,-166,-976
267.337,-13,-166,-956
267.601,29,-161,-921
267.725,161,-209,-896
267.849,296,-221,-882
267.973,352,-234,-837
268.097,281,-216,-866
268.221,142,-220,-889
268.625,72,-186,-964
268.749,209,-221,-885
268.873,414,-278,-756
268.997,584,-344,-624
269.121,652,-338,-577
269.245,585,-341,-598
269.369,401,-317,-712
269.493,206,-293,-852
269.617,108,-246,-1022
269.741,213,-249,-1002
269.865,413,-269,-905
269.989,602,-284,-710
270.253,662,-285,-641
270.377,596,-261,-710
270.505,450,-224,-813
270.629,262,-180,-894
270.753,118,-161,-953
271.818,62,-154,-977
271.825,161,-173,-972
271.827,316,-181,-905
271.834,441,-212,-808
271.836,573,-204,-710
271.84,648,-198,-646
271.905,677,-200,-650
272.029,622,-206,-686
272.153,512,-232,-782
272.276,316,-241,-838
272.401,102,-224,-909
272.525,-41,-196,-980
272.648,-65,-153,-1013
272.772,-29,-178,-988
272.897,34,-172,-922
273.021,184,-165,-900
273.145,398,-170,-785
273.269,624,-200,-641
273.393,745,-209,-500
273.517,770,-226,-516
273.641,708,-228,-598
273.765,554,-292,-681
273.889,306,-282,-794
274.013,85,-258,-858
274.276,-21,-213,-952
274.541,49,-194,-980
274.665,160,-214,-918
274.788,346,-217,-808
274.913,562,-250,-662
275.036,696,-240,-566
275.305,693,-280,-581
275.429,518,-296,-709
275.553,274,-278,-808
275.676,100,-260,-909
276.361,112,-234,-926
276.484,300,-276,-801
276.609,528,-289,-644
276.732,697,-290,-518
276.997,742,-265,-565
277.12,606,-249,-665
277.245,394,-220,-801
277.369,206,-209,-894
277.493,100,-212,-945
277.897,28,-208,-997
278.16,45,-182,-998
278.285,120,-156,-949
278.409,270,-180,-885
278.532,473,-176,-766
278.657,648,-220,-616
278.781,742,-233,-516
278.905,750,-265,-520
279.028,692,-266,-588
279.153,553,-273,-693
279.28,369,-264,-844
279.405,193,-257,-949
279.529,80,-234,-989
281.333,246,-210,-857
281.457,448,-212,-706
281.58,685,-240,-522
281.704,765,-266,-442
281.829,792,-285,-453
281.953,709,-285,-553
282.076,506,-261,-701
282.201,260,-234,-848
282.325,65,-222,-929
283.148,166,-248,-852
283.273,352,-284,-773
283.396,556,-341,-666
283.521,654,-381,-641
283.785,666,-380,-578
283.911,624,-364,-617
284.037,557,-342,-676
284.16,444,-334,-770
284.284,294,-308,-846
284.409,148,-288,-912
284.533,58,-284,-937
285.497,126,-238,-953
285.62,165,-237,-940
285.744,228,-252,-922
285.869,285,-285,-884
285.993,357,-305,-860
286.117,453,-317,-817
286.241,546,-308,-766
286.645,590,-310,-714
286.769,445,-313,-786
286.892,250,-293,-893
287.017,94,-264,-945
287.701,126,-218,-961
287.824,209,-226,-944
287.949,361,-221,-870
288.073,510,-214,-761
288.201,646,-210,-648
288.608,660,-248,-605
288.733,540,-228,-665
288.856,320,-198,-813
288.98,165,-164,-910
289.104,53,-188,-982
290.348,81,-200,-970
290.472,222,-210,-933
290.597,441,-246,-809
290.72,598,-230,-681
291.125,721,-225,-590
291.249,660,-217,-644
291.372,522,-202,-772
291.496,332,-209,-890
291.62,190,-210,-968
291.744,104,-216,-1002
292.148,54,-208,-958
292.413,84,-214,-930
292.537,196,-194,-910
292.66,368,-202,-836
292.788,542,-225,-765
292.912,638,-228,-640
293.456,704,-238,-618
293.58,540,-220,-730
293.704,341,-193,-858
293.828,154,-162,-949
293.953,73,-169,-966
294.357,65,-196,-952
294.481,140,-172,-932
294.604,300,-152,-898
294.728,489,-169,-817
294.853,645,-196,-690
294.976,730,-241,-569
295.52,706,-281,-512
295.645,641,-229,-612
295.768,528,-218,-768
295.892,362,-220,-884
296.016,180,-250,-926
296.56,57,-217,-948
296.684,162,-228,-942
296.808,334,-230,-858
296.932,518,-272,-750
297.059,642,-289,-650
297.604,689,-264,-646
297.729,566,-242,-738
297.852,413,-225,-866
297.976,241,-218,-917
298.1,157,-225,-946
298.644,34,-181,-950
298.768,96,-194,-940
298.892,281,-234,-862
299.016,565,-281,-709
299.14,724,-289,-538
299.545,749,-297,-505
299.668,642,-289,-610
299.792,430,-264,-770
299.917,217,-218,-910
300.041,66,-192,-972
300.724,42,-172,-976
300.848,138,-180,-964
300.972,285,-200,-914
301.096,440,-233,-820
301.22,538,-264,-733
301.889,597,-253,-686
302.013,460,-238,-773
302.136,292,-213,-896
302.261,165,-222,-974
302.384,129,-193,-989
302.508,106,-185,-1002
302.633,96,-181,-1032
302.756,77,-206,-1046
302.881,117,-212,-1024
303.004,221,-186,-926
303.128,374,-188,-825
303.253,530,-185,-686
303.376,648,-184,-604
303.92,716,-176,-593
304.044,664,-174,-684
304.169,529,-172,-794
304.292,350,-156,-944
304.416,180,-146,-1014
304.541,102,-118,-992
304.805,128,-124,-902
304.928,254,-190,-865
305.052,472,-221,-746
306.111,700,-254,-590
306.114,822,-253,-420
306.115,858,-262,-274
306.122,836,-234,-304
306.124,712,-197,-484
306.133,502,-164,-718
306.135,242,-120,-900
306.137,84,-108,-976
306.453,112,-86,-1001
306.577,276,-161,-929
306.701,477,-225,-798
306.824,650,-309,-569
306.948,752,-321,-442
307.212,824,-312,-441
307.336,736,-292,-540
307.46,588,-232,-682
307.584,404,-176,-825
307.708,232,-126,-918
307.832,130,-133,-965
308.236,76,-150,-1005
308.36,89,-141,-988
308.484,161,-148,-953
308.608,264,-136,-920
308.732,452,-160,-817
308.856,594,-198,-686
308.98,701,-237,-533
309.244,722,-237,-530
309.368,629,-218,-652
309.492,430,-181,-817
309.62,210,-165,-952
310.024,85,-152,-961
310.148,216,-108,-909
310.272,402,-112,-792
310.396,570,-129,-702
310.8,609,-142,-713
310.924,449,-152,-810
311.048,252,-149,-908
311.172,90,-130,-961
311.576,52,-80,-980
311.7,136,-100,-1012
311.824,318,-138,-945
311.948,520,-173,-793
312.072,661,-165,-637
312.196,713,-144,-588
312.46,613,-120,-746
312.584,445,-101,-861
312.708,240,-98,-968
312.832,114,-96,-977
313.236,114,-148,-964
313.36,289,-138,-940
313.484,453,-138,-868
313.892,456,-113,-876
314.016,286,-93,-933
314.14,96,-85,-1000
314.404,30,-100,-997
314.528,52,-114,-953
314.652,45,-114,-956
314.776,44,-97,-886
314.9,100,-80,-914
315.024,246,-126,-893
315.149,477,-164,-840
315.272,642,-198,-704
315.396,726,-185,-622
315.52,633,-177,-684
315.645,385,-192,-804
315.768,184,-190,-897
315.892,62,-206,-942
316.436,141,-182,-954
316.56,218,-178,-940
316.684,332,-216,-880
316.808,525,-252,-770
316.932,616,-276,-670
317.196,650,-234,-637
317.32,570,-254,-722
317.444,449,-244,-802
317.568,341,-244,-888
318.236,282,-201,-898
318.36,308,-193,-890
318.485,385,-168,-866
318.609,526,-196,-792
318.732,657,-188,-684
318.856,741,-212,-541
318.98,788,-232,-424
319.104,840,-261,-361
319.492,750,-232,-433
319.617,618,-229,-565
319.74,372,-160,-780
319.864,244,-100,-926
319.989,108,-76,-1004
320.112,68,-105,-1001
320.516,61,-136,-1002
320.64,182,-149,-973
320.764,358,-201,-874
320.889,568,-225,-758
321.013,702,-244,-605
321.277,752,-216,-533
321.4,677,-230,-594
321.524,573,-225,-701
321.648,449,-236,-884
321.772,288,-198,-973
321.896,160,-172,-1006
322.564,85,-165,-973
322.688,192,-170,-952
322.812,393,-218,-893
322.936,557,-226,-752
323.06,666,-225,-614
323.184,710,-202,-512
323.588,741,-198,-576
323.712,630,-169,-673
323.836,476,-144,-806
323.96,312,-126,-884
324.084,172,-137,-933
325.048,106,-156,-968
325.172,204,-140,-913
325.296,356,-144,-901
325.42,474,-148,-850
325.544,568,-181,-825
325.668,592,-197,-728
325.932,565,-196,-676
326.056,458,-216,-838
326.18,257,-206,-917
326.304,102,-190,-1026
326.692,72,-106,-978
326.816,85,-141,-922
326.94,117,-130,-912
327.064,221,-154,-914
327.188,378,-157,-876
327.312,562,-213,-733
327.436,713,-258,-584
327.56,808,-262,-478
327.825,817,-242,-441
327.948,742,-217,-564
328.072,617,-166,-672
328.196,474,-154,-834
328.32,306,-170,-888
328.444,194,-192,-952
328.708,84,-157,-844
328.832,112,-156,-849
328.957,94,-184,-837
329.08,153,-197,-962
329.204,206,-220,-920
329.328,348,-274,-892
329.452,494,-290,-737
329.576,624,-305,-654
329.7,736,-300,-500
329.824,778,-265,-441
329.948,794,-238,-400
330.072,709,-190,-514
330.196,565,-144,-676
330.32,357,-113,-853
330.448,228,-37,-888
330.572,158,-53,-874
330.696,181,-46,-836
330.82,184,-104,-905
330.944,198,-157,-965
331.068,130,-165,-952
331.199,249,-124,-1002
331.316,324,-18,-1044
331.44,434,10,-1093
331.564,373,-17,-1010
331.688,424,-129,-848
331.812,562,-216,-705
331.936,676,-290,-537
332.06,778,-302,-452
332.184,789,-274,-486
332.308,725,-237,-640
332.432,512,-170,-789
332.556,253,-142,-880
332.68,162,-166,-920
332.804,106,-229,-960
332.928,125,-270,-966
333.332,112,-254,-945
333.456,238,-285,-920
333.582,438,-314,-840
333.704,638,-345,-701
333.828,746,-337,-585
333.952,761,-314,-525
334.216,685,-301,-558
334.344,606,-300,-618
334.468,457,-258,-733
334.592,272,-228,-850
334.716,148,-218,-936
334.84,118,-225,-942
335.229,165,-233,-942
335.352,304,-265,-892
335.476,452,-297,-774
335.6,604,-317,-640
335.728,685,-334,-516
336.132,718,-308,-554
336.256,641,-280,-674
336.38,498,-202,-829
336.504,316,-138,-968
336.628,161,-81,-1016
336.752,38,-84,-1008
337.016,-25,-81,-986
337.14,28,-69,-992
337.264,57,-46,-1004
337.388,257,-45,-989
337.512,372,-33,-945
337.636,554,-58,-858
337.76,580,-64,-744
337.884,709,-82,-652
338.008,765,-78,-573
338.132,780,-70,-542
338.256,721,-76,-584
338.384,618,-100,-713
338.508,418,-108,-866
338.635,226,-104,-970
339.596,161,-128,-969
339.72,278,-121,-944
339.844,440,-130,-856
339.968,586,-161,-742
340.092,658,-164,-660
340.356,621,-137,-652
340.48,568,-133,-741
340.604,440,-104,-841
340.728,300,-112,-924
340.852,-1,38,-684
340.976,-94,26,-706
341.1,-73,49,-710
341.224,5,-97,-978
341.348,61,-61,-953
341.472,72,-52,-968
341.596,217,-32,-976
341.72,305,-70,-980
341.844,410,-129,-862
341.968,569,-220,-733
342.232,677,-244,-634
342.356,642,-192,-646
342.483,568,-136,-730
342.608,421,-105,-913
342.732,234,-80,-1021
342.856,101,-70,-1064
342.98,108,-77,-996
343.104,93,-62,-992
343.228,73,-90,-977
343.632,1,-126,-986
343.756,62,-118,-982
343.883,202,-154,-953
344.004,385,-234,-856
344.128,578,-289,-737
344.252,688,-308,-616
344.376,725,-273,-565
344.5,676,-248,-561
344.624,565,-176,-686
344.748,349,-133,-830
344.872,136,-114,-941
346.116,64,-172,-964
346.38,105,-269,-914
346.504,242,-282,-872
346.628,366,-304,-722
346.755,646,-338,-580
346.88,712,-356,-454
347.004,810,-361,-456
347.128,640,-249,-560
347.252,534,-186,-726
347.376,370,-125,-905
347.5,173,-120,-1004
347.904,64,-85,-981
348.168,140,-65,-989
348.292,281,-65,-933
348.416,464,-84,-810
348.54,673,-106,-732
348.664,786,-156,-617
348.928,786,-164,-544
349.052,677,-158,-625
349.176,556,-157,-742
349.3,388,-134,-826
349.424,246,-116,-896
349.548,96,-106,-934
349.672,17,-117,-982
350.216,77,-84,-972
350.34,206,-98,-936
350.464,397,-113,-810
350.588,609,-104,-666
350.712,721,-86,-525
350.96,768,-81,-497
351.084,690,-113,-601
351.208,498,-136,-706
351.332,169,-84,-848
351.456,13,-81,-922
351.58,-36,-78,-981
352.684,42,-150,-989
352.948,-14,-165,-954
353.072,46,-161,-934
353.196,177,-217,-822
353.32,430,-225,-785
353.444,616,-186,-664
353.568,721,-116,-652
353.832,645,-116,-705
353.956,509,-124,-782
354.08,324,-124,-908
354.204,177,-76,-946
354.608,26,-86,-968
354.872,93,-65,-861
354.996,216,-86,-834
355.12,420,-101,-748
355.246,588,-124,-726
355.372,721,-80,-609
355.496,802,-49,-512
355.76,850,-25,-457
355.884,765,-69,-552
356.008,621,-137,-722
356.132,390,-128,-898
356.256,241,-97,-989
356.38,125,-66,-1036
356.644,96,-74,-1004
356.908,132,-44,-994
357.032,266,-96,-938
357.156,460,-96,-917
357.28,630,-144,-730
357.404,761,-118,-618
357.528,821,-146,-418
357.652,856,-117,-385
357.776,830,-106,-408
357.9,757,-73,-548
358.024,585,-33,-677
358.148,370,-6,-836
358.272,168,-16,-924
358.956,98,-69,-986
359.08,189,-89,-956
359.204,388,-106,-854
359.331,596,-125,-672
359.456,778,-133,-512
359.58,858,-106,-420
359.704,869,-96,-428
359.828,834,-81,-456
359.952,808,-69,-501
360.076,758,-60,-561
360.2,601,-57,-744
360.324,382,-69,-882
360.448,200,-66,-1005
360.572,112,-69,-980
360.976,58,-97,-968
361.38,84,-90,-1000
361.504,266,-82,-946
361.628,501,-72,-814
361.751,702,-62,-669
362.016,720,-84,-634
362.14,609,-117,-697
362.264,426,-93,-838
362.388,246,-53,-930
362.792,113,24,-966
362.916,166,21,-965
363.04,338,4,-821
363.164,545,-34,-654
363.288,733,-42,-470
363.415,821,-40,-429
363.68,738,-61,-498
363.803,537,-53,-656
363.928,318,-2,-858
364.051,174,5,-982
364.456,98,-13,-961
364.58,141,16,-948
364.984,269,36,-929
365.108,434,-6,-800
365.232,616,-12,-625
365.356,748,-37,-485
366.04,812,-76,-466
366.164,726,-85,-550
366.288,532,-96,-694
366.412,349,-29,-956
366.536,201,-21,-1036
366.66,144,9,-1061
366.924,108,-45,-989
367.048,145,-44,-1010
367.172,229,-56,-982
367.296,409,-40,-897
367.42,549,-62,-726
367.544,680,-56,-617
367.792,820,-61,-529
368.056,854,-73,-464
368.18,722,-24,-532
368.304,525,5,-697
368.428,326,49,-889
368.552,210,38,-980
368.675,153,22,-988
369.08,154,-4,-996
369.204,261,-29,-1001
369.328,436,-50,-906
369.452,633,-82,-773
369.575,770,-76,-605
369.7,822,-68,-522
369.964,788,-37,-517
370.088,694,-17,-625
370.212,477,4,-773
370.335,292,36,-990
370.462,142,33,-1056
370.583,156,10,-1076
370.848,214,-64,-965
370.972,238,-54,-956
371.095,332,-41,-928
371.22,452,-52,-832
371.343,606,-82,-688
371.468,732,-101,-570
371.855,781,-93,-522
371.98,678,-78,-628
372.103,489,-62,-764
372.228,280,-42,-942
373.051,73,-74,-958
373.177,177,-66,-953
373.3,372,-53,-874
373.424,589,-114,-734
373.548,745,-161,-542
373.672,810,-185,-425
374.216,768,-185,-484
374.339,584,-145,-674
374.463,333,-90,-853
374.588,162,-65,-934
375.271,121,-33,-998
375.395,201,-30,-993
375.52,380,-76,-924
375.643,586,-120,-716
375.768,750,-182,-493
375.892,826,-196,-346
376.156,876,-189,-356
376.284,796,-184,-460
376.408,650,-146,-630
376.536,433,-80,-814
376.659,261,-1,-1008
376.783,129,-24,-1066
376.908,90,-44,-1074
377.455,94,-96,-968
377.579,189,-92,-949
377.704,346,-84,-896
377.827,566,-82,-793
377.952,701,-130,-578
378.076,778,-145,-420
378.2,800,-153,-354
378.325,782,-89,-441
378.447,677,-50,-558
378.572,528,10,-942
378.696,364,-18,-1101
378.82,226,-33,-1185
379.504,221,-77,-980
379.628,374,-86,-900
379.751,588,-60,-741
379.875,749,-90,-518
379.999,845,-85,-382
380.263,880,-86,-360
380.391,765,-72,-508
380.516,520,-45,-652
380.639,216,-72,-801
380.763,69,-88,-878
381.027,113,-53,-992
381.151,209,-80,-944
381.275,398,-133,-805
381.4,616,-173,-662
381.523,749,-210,-548
381.788,770,-224,-536
381.911,722,-194,-610
382.035,606,-134,-760
382.159,446,-102,-896
382.283,286,-77,-968
382.967,236,-60,-944
383.091,405,-54,-878
383.216,596,-66,-762
383.339,761,-94,-569
383.463,817,-118,-444
383.868,842,-138,-422
383.991,773,-90,-544
384.115,638,-58,-704
384.24,476,-21,-856
384.364,310,-24,-929
384.49,178,-36,-965
385.035,74,4,-982
385.16,158,18,-964
385.283,344,61,-900
385.407,525,76,-778
385.532,704,81,-653
385.796,796,37,-570
386.06,792,25,-584
386.183,702,-12,-614
386.308,549,-22,-733
386.431,309,-66,-890
386.555,158,-100,-958
386.679,102,-137,-966
386.803,100,-152,-977
387.067,117,-77,-1010
387.191,185,-66,-996
387.315,328,-110,-946
387.44,501,-190,-776
387.563,662,-208,-588
387.688,774,-188,-449
387.811,853,-177,-465
387.935,872,-198,-453
388.06,873,-197,-450
388.183,857,-192,-426
388.308,772,-205,-484
388.431,594,-170,-656
388.559,352,-137,-808
388.683,184,-80,-934
389.211,164,-74,-1057
389.335,290,-96,-1068
389.46,462,-196,-902
389.583,641,-268,-602
389.708,749,-310,-352
389.831,833,-284,-269
390.096,858,-253,-317
390.22,780,-164,-505
390.343,628,-112,-681
390.467,441,-45,-858
390.591,293,-49,-976
390.716,188,-21,-1033
390.839,145,-33,-1033
391.384,160,-98,-978
391.507,304,-166,-908
391.631,538,-214,-722
391.755,786,-186,-521
391.879,830,-88,-285
392.004,808,-45,-225
392.127,674,-110,-310
392.251,485,-101,-608
392.375,238,-81,-816
392.499,40,20,-958
392.626,42,1,-969
392.891,169,-42,-950
393.016,372,-117,-805
393.139,610,-218,-542
393.263,777,-256,-350
393.388,833,-261,-248
393.511,868,-246,-250
393.636,818,-250,-338
393.76,670,-242,-536
393.883,426,-208,-752
394.007,216,-134,-910
394.131,94,-76,-985
394.255,57,-76,-998
394.379,54,-94,-986
394.503,45,-85,-968
394.627,117,-14,-980
394.751,261,-17,-942
394.875,490,-28,-765
395.0,688,-90,-549
395.124,808,-104,-368
395.387,853,-169,-374
395.511,726,-109,-522
395.635,516,-58,-736
395.759,240,1,-980
395.884,85,-42,-1064
396.007,1,-102,-1053
396.551,120,-68,-958
396.68,241,-5,-920
396.803,406,33,-870
396.927,568,0,-726
397.051,721,-50,-549
397.175,833,-117,-350
397.299,882,-137,-297
397.563,825,-82,-398
397.688,616,29,-597
397.811,377,38,-820
397.935,181,33,-974
398.059,121,-52,-992
398.463,157,-41,-994
398.588,269,-21,-990
398.711,440,33,-841
398.836,642,36,-645
398.959,769,41,-421
399.083,848,1,-409
399.208,828,17,-416
399.331,692,70,-600
399.455,509,154,-737
399.58,310,204,-881
399.703,214,154,-952
399.828,120,96,-977
399.951,65,65,-1004
400.215,69,76,-1069
400.339,198,37,-1081
400.463,384,14,-958
400.59,586,-37,-726
400.715,724,-49,-557
401.119,734,32,-557
401.243,636,78,-622
401.368,437,128,-757
401.491,217,173,-978
401.615,48,152,-1069
401.74,25,96,-1082
402.004,142,18,-988
402.128,277,14,-910
402.252,480,-20,-798
402.375,649,-29,-645
402.499,750,-33,-586
402.623,752,-36,-590
402.747,642,-12,-697
402.871,462,9,-846
402.995,233,61,-945
403.119,104,64,-1001
403.243,16,58,-980
403.367,30,17,-989
403.631,130,-44,-998
403.755,240,-58,-950
403.879,380,-48,-870
404.004,545,-42,-737
404.127,674,-30,-632
404.251,768,-54,-542
404.375,765,-57,-526
404.499,729,-44,-605
404.628,636,-16,-742
404.751,449,-4,-868
404.875,221,-20,-937
404.999,52,-36,-972
405.527,93,-53,-976
405.651,289,-42,-932
405.775,525,-34,-796
405.899,742,-44,-612
406.024,837,-61,-472
406.147,860,-62,-454
406.271,749,-28,-541
406.395,554,-10,-709
406.519,306,-13,-866
406.643,126,-38,-1061
406.768,28,-52,-1072
406.892,14,-57,-1064
407.156,130,-56,-973
407.279,326,-72,-897
407.404,558,-76,-718
407.527,736,-86,-541
408.071,792,-100,-501
408.195,690,-44,-630
408.319,524,0,-773
408.443,330,53,-944
408.567,173,33,-1036
408.695,85,25,-1060
408.819,48,-14,-1016
409.084,37,-57,-980
409.208,76,-105,-966
409.331,165,-162,-945
409.455,332,-225,-881
409.58,504,-233,-756
409.703,665,-246,-586
409.827,768,-242,-470
410.091,789,-205,-509
410.215,662,-122,-609
410.339,498,-58,-770
410.463,326,-38,-921
410.587,212,-90,-1038
410.711,133,-126,-1045
412.375,188,-108,-960
412.499,308,-66,-913
412.623,449,-52,-826
412.747,578,-48,-708
412.872,684,-90,-637
413.259,721,-102,-604
413.383,670,-104,-718
413.507,493,-78,-821
413.631,305,-56,-932
413.755,128,-28,-985
414.159,34,-29,-993
414.703,106,-29,-981
414.827,228,-25,-934
414.951,381,-13,-886
415.075,502,-34,-805
415.199,594,-40,-765
415.743,625,-58,-698
415.867,565,-33,-777
415.991,444,-30,-873
416.115,274,-12,-961
416.239,120,-32,-970
416.503,38,-68,-977
417.75,93,-117,-993
417.875,194,-80,-966
417.999,370,-49,-897
418.123,566,-64,-742
418.247,716,-89,-664
418.791,690,-45,-656
418.915,628,-21,-716
419.459,470,9,-841
419.583,392,13,-885
419.707,272,28,-938
419.831,148,6,-981
419.955,70,-25,-998
421.023,70,-174,-1029
421.147,172,-137,-1006
421.271,340,-112,-954
421.395,502,-84,-812
421.519,626,-109,-730
421.643,692,-136,-656
422.047,662,-109,-670
422.171,522,-94,-806
422.303,309,-92,-898
422.427,116,-82,-1032
422.691,4,-97,-1053
423.795,136,-149,-946
423.919,262,-132,-897
424.043,416,-110,-809
424.167,586,-94,-746
424.291,641,-93,-677
424.695,688,-133,-790
424.819,573,-169,-860
424.943,384,-180,-945
425.067,177,-148,-905
425.191,44,-100,-933
425.315,20,-105,-946
425.579,78,-121,-974
425.703,74,-149,-965
426.247,230,-198,-913
426.371,425,-212,-864
426.495,608,-217,-736
426.619,684,-238,-665
426.747,712,-225,-608
426.871,665,-210,-617
426.995,568,-204,-673
427.119,413,-210,-772
427.243,260,-216,-898
427.647,174,-192,-969
427.771,241,-200,-932
427.895,358,-201,-868
428.019,470,-200,-789
428.283,530,-193,-749
428.407,452,-164,-821
428.531,300,-138,-865
428.656,196,-100,-1017
428.779,104,-98,-1028
428.903,81,-101,-1062
429.027,92,-98,-972
429.151,185,-64,-924
429.275,342,-57,-868
429.399,494,-74,-797
429.523,596,-125,-756
429.927,550,-110,-745
430.051,368,-56,-900
430.175,201,-64,-976
430.299,101,-82,-1022
431.527,109,-186,-957
431.651,97,-176,-980
431.775,144,-150,-972
431.899,296,-109,-929
432.023,505,-108,-777
432.147,666,-145,-645
432.271,708,-121,-610
432.395,684,-90,-657
432.519,512,-22,-722
432.643,278,-10,-804
432.767,0,1,-894
433.031,-126,-46,-976
433.155,-57,-81,-989
433.279,-44,-54,-985
433.403,72,26,-1010
433.527,233,130,-958
433.651,462,166,-862
433.775,598,152,-729
434.039,617,101,-721
434.163,450,132,-816
434.288,237,144,-928
434.411,50,110,-964
434.535,-33,36,-996
434.659,-42,-28,-1001
434.923,14,-32,-1014
435.051,124,-13,-988
435.175,289,16,-933
435.299,490,-6,-817
435.423,594,-18,-746
435.687,529,-34,-808
435.811,393,-10,-882
435.935,194,4,-1005
436.059,85,-21,-1005
436.603,157,-37,-953
436.727,313,-46,-898
436.851,477,-66,-822
436.975,578,-104,-752
437.239,569,-94,-733
437.363,457,-90,-848
437.487,293,-53,-922
437.611,154,-69,-994
437.735,80,-77,-960
437.999,141,-100,-958
438.123,270,-121,-944
438.247,418,-125,-869
438.371,569,-140,-762
438.775,612,-113,-674
438.899,457,-102,-797
439.023,261,-72,-904
439.15,112,-96,-997
439.695,41,-161,-981
439.824,134,-176,-965
439.943,264,-184,-933
440.067,400,-174,-864
440.191,477,-165,-798
440.455,457,-152,-850
440.579,374,-164,-866
440.703,258,-178,-904
440.827,146,-205,-881
440.951,40,-232,-905
441.075,16,-205,-930
441.199,6,-229,-937
441.323,74,-172,-978
441.448,89,-172,-970
441.571,201,-125,-940
441.695,153,-86,-804
441.819,369,-125,-665
441.943,508,-149,-532
442.067,733,-213,-516
442.191,681,-186,-576
442.316,514,-130,-734
442.439,313,-50,-866
442.563,100,-4,-928
442.687,36,4,-949
442.811,66,-18,-964
442.935,189,-61,-946
443.059,333,-82,-866
443.187,478,-113,-778
443.311,578,-112,-696
443.435,669,-122,-634
443.559,717,-116,-585
443.683,764,-85,-577
443.807,702,-49,-621
443.931,573,-5,-685
444.055,389,14,-782
444.179,226,41,-873
444.303,120,26,-941
444.567,90,-8,-945
444.691,132,-29,-949
444.815,197,-37,-930
444.939,230,-36,-938
445.063,308,-13,-905
445.187,401,1,-873
445.311,526,-10,-809
445.435,645,-38,-752
445.559,730,-58,-657
445.683,792,-56,-573
446.227,672,-94,-657
446.351,477,-122,-794
446.475,250,-117,-950
446.599,92,-100,-985
446.863,56,-70,-1006
446.987,168,-64,-993
447.114,341,-61,-925
447.24,532,-80,-768
447.363,677,-92,-640
447.487,758,-78,-565
447.611,777,-64,-580
447.735,694,-38,-645
447.859,561,-9,-744
447.983,358,8,-858
448.107,204,34,-1096
448.231,113,26,-1141
448.355,90,1,-1130
448.479,128,-40,-958
448.603,233,-89,-926
448.727,412,-82,-878
448.851,560,-101,-720
448.975,680,-112,-609
449.099,729,-128,-537
449.363,677,-110,-610
449.487,513,-70,-732
449.611,296,-46,-886
449.735,113,-21,-988
450.139,93,-21,-994
450.263,238,-42,-964
450.387,432,-48,-856
450.511,598,-81,-668
450.635,733,-89,-520
450.759,808,-85,-498
450.883,733,-72,-593
451.01,560,-24,-726
451.135,321,-12,-849
451.259,165,-10,-916
451.663,64,-66,-962
451.927,190,-61,-958
452.051,352,-53,-888
452.175,558,-60,-746
452.299,730,-60,-609
452.703,736,-52,-565
452.827,624,-56,-689
452.951,425,-80,-828
453.075,237,-57,-930
453.199,88,-49,-980
453.463,86,-45,-970
453.587,257,-46,-926
453.711,476,-45,-796
453.835,665,-29,-692
454.239,780,-36,-590
454.363,713,-46,-650
454.487,545,-68,-733
454.611,328,-82,-828
454.735,118,-70,-941
454.859,1,-66,-985
455.123,-24,-42,-962
455.251,90,-49,-1000
455.375,313,-61,-960
455.499,514,-125,-809
455.623,666,-142,-669
456.027,634,-134,-684
456.151,464,-120,-766
456.275,236,-97,-878
456.399,60,-60,-962
456.664,-45,-80,-989
456.787,21,-101,-996
456.911,194,-121,-941
457.035,430,-118,-809
457.159,674,-125,-636
457.283,809,-108,-502
457.687,786,-98,-524
457.811,624,-92,-670
457.935,356,-78,-837
458.059,120,-50,-949
458.463,9,-49,-996
458.587,104,-9,-1000
458.711,272,14,-958
458.835,470,-4,-806
458.959,665,-56,-646
459.082,772,-101,-501
459.35,762,-140,-489
459.475,634,-154,-637
459.599,392,-136,-817
459.723,130,-81,-994
459.847,-25,-50,-1021
459.97,-73,-29,-1001
460.235,34,6,-974
460.359,158,5,-968
460.483,377,-28,-872
460.607,574,-81,-706
460.73,721,-113,-556
460.855,765,-120,-516
460.979,682,-130,-569
461.103,492,-109,-745
461.227,225,-86,-878
461.351,-6,-58,-1202
461.475,-96,-56,-1202
461.599,-122,-58,-1212
461.862,-42,-34,-997
461.987,72,-30,-982
462.111,302,-45,-908
462.234,528,-86,-762
462.359,688,-89,-601
462.483,773,-57,-498
462.607,754,-37,-541
462.731,657,-44,-662
462.855,417,-57,-824
462.979,205,-56,-901
463.103,36,-45,-1020
463.231,-69,-38,-1022
463.355,-62,-17,-1052
463.479,-2,-13,-990
463.603,109,-28,-1028
463.726,236,-42,-982
463.851,416,-53,-885
463.975,605,-56,-665
464.099,761,-68,-516
464.363,849,-68,-541
464.487,736,-102,-633
464.611,496,-116,-790
464.735,181,-165,-908
464.859,-50,-161,-993
465.263,-17,-164,-937
465.386,185,-217,-874
465.51,389,-297,-742
465.634,602,-289,-618
465.759,738,-278,-514
466.023,729,-253,-588
466.147,492,-210,-745
466.271,218,-216,-890
466.394,45,-248,-890
466.518,-32,-289,-970
466.783,-50,-214,-1034
466.906,-21,-156,-965
467.031,2,-88,-996
467.155,81,-69,-1017
467.283,216,-46,-986
467.407,348,30,-922
467.531,469,70,-854
467.655,538,84,-769
467.778,617,65,-729
467.903,681,84,-629
468.027,722,124,-592
468.151,709,124,-590
468.275,661,86,-680
468.399,537,8,-818
468.523,329,-48,-908
468.646,140,-53,-965
469.051,8,-88,-977
469.174,60,-114,-976
469.298,234,-140,-984
469.423,408,-74,-908
469.546,550,-24,-796
469.671,612,38,-693
469.795,654,64,-709
469.919,652,56,-760
470.183,597,42,-848
470.306,406,28,-893
470.431,133,-37,-889
470.554,-104,-88,-802
470.679,-129,-162,-810
470.802,-109,-189,-901
470.927,-65,-169,-1022
471.051,-77,-116,-997
471.179,89,-96,-900
471.303,302,-60,-852
471.426,556,-61,-773
471.551,653,10,-734
471.814,685,42,-721
471.939,601,5,-785
472.062,417,6,-909
472.186,206,-10,-1006
472.31,-18,16,-1056
472.434,-128,22,-1026
472.559,-185,49,-989
472.683,-138,37,-992
472.806,5,10,-993
472.93,125,1,-969
473.054,270,-2,-917
473.179,369,18,-849
473.302,500,38,-798
473.427,624,68,-702
473.551,726,98,-629
473.815,773,117,-618
473.938,666,73,-704
474.062,512,53,-802
474.187,341,14,-888
474.31,141,18,-924
474.434,-52,8,-934
474.558,-184,28,-966
474.962,-250,25,-976
475.089,-150,10,-969
475.214,12,9,-930
475.338,246,-20,-901
475.462,437,-24,-817
475.586,601,-22,-746
475.71,705,-12,-670
475.975,712,-8,-658
476.099,630,-32,-753
476.222,490,-68,-817
476.346,324,-81,-893
476.471,78,-74,-934
476.594,-88,-40,-990
477.138,-156,-16,-978
477.263,-52,-13,-958
477.386,117,-16,-926
477.51,302,-28,-872
477.634,518,-30,-761
477.759,693,-9,-638
477.882,810,14,-542
478.006,821,37,-530
478.131,749,12,-617
478.254,572,-8,-736
478.378,369,-48,-866
478.502,129,-49,-937
478.627,-53,-42,-974
478.75,-185,-29,-985
479.014,-108,-37,-1005
479.143,69,-36,-988
479.266,285,-20,-937
479.391,489,22,-828
479.514,640,48,-706
479.638,781,81,-589
479.762,800,108,-568
479.886,790,112,-625
480.011,604,72,-733
480.135,386,0,-842
480.259,112,-21,-905
480.382,-110,-29,-964
480.647,-280,-14,-972
480.77,-209,-17,-980
480.894,-110,-26,-989
481.018,61,-30,-976
481.142,289,-30,-922
481.267,509,-22,-817
481.391,686,-18,-717
481.514,765,-28,-605
481.779,769,-32,-561
481.903,745,-28,-636
482.026,632,-48,-726
482.151,442,-93,-833
482.275,178,-93,-941
482.4,-86,-60,-993
482.523,-252,-41,-997
483.07,-256,-52,-966
483.194,-72,-42,-965
483.319,182,-22,-918
483.443,412,9,-842
483.566,584,32,-745
483.69,684,45,-668
483.955,672,42,-697
484.079,536,26,-777
484.203,316,-5,-857
484.327,45,-28,-906
484.45,-121,-46,-942
484.854,-82,-49,-960
484.978,72,-2,-933
485.102,293,52,-873
485.226,520,102,-774
485.35,698,116,-648
485.614,785,117,-600
485.739,666,92,-680
485.863,524,85,-808
485.987,305,33,-884
486.11,112,6,-977
486.514,-60,36,-1002
486.639,-37,112,-1000
486.762,33,186,-972
486.887,220,196,-909
487.01,446,169,-778
487.137,664,152,-649
487.262,797,168,-537
487.51,842,174,-526
487.634,732,148,-613
487.759,572,104,-752
487.882,378,62,-868
488.01,122,54,-928
488.134,-74,36,-950
488.538,-168,-25,-985
488.662,-181,-37,-964
488.787,-156,-54,-972
488.91,-88,-48,-936
489.035,150,-68,-913
489.158,409,-52,-817
489.282,629,-30,-677
489.411,772,14,-577
489.534,788,26,-529
489.658,764,26,-601
489.782,630,33,-704
489.907,414,21,-800
490.03,120,14,-890
490.155,-122,-2,-934
490.698,-238,20,-958
490.822,-132,8,-949
490.947,98,9,-929
491.071,382,33,-858
491.197,614,45,-770
491.322,728,24,-677
491.446,768,-18,-669
491.571,713,-61,-696
491.694,570,-86,-782
491.818,364,-114,-860
491.942,129,-106,-906
492.067,-82,-100,-932
492.19,-232,-69,-932
492.454,-225,-17,-985
492.579,-125,6,-980
492.703,85,12,-960
492.826,317,16,-868
492.95,558,8,-754
493.074,710,26,-630
493.338,776,58,-598
493.462,702,69,-660
493.586,578,54,-749
493.711,394,42,-830
493.835,130,32,-896
493.958,-56,28,-958
494.082,-190,36,-1000
494.61,-12,44,-984
494.734,241,38,-920
494.858,557,14,-814
494.982,752,-42,-625
495.106,845,-66,-514
495.234,846,-54,-469
495.359,810,-44,-564
495.482,672,-25,-689
495.606,442,-56,-813
495.73,121,-34,-885
495.854,-168,-60,-920
496.118,-296,-53,-940
496.242,-213,-25,-954
496.366,20,-5,-942
496.49,313,28,-898
496.614,622,14,-769
496.738,770,-20,-650
497.003,758,-40,-642
497.127,598,-24,-732
497.25,377,-28,-850
497.374,72,-44,-905
497.498,-161,-49,-949
497.902,-313,-42,-957
498.026,-266,-44,-965
498.15,-200,-54,-958
498.274,-40,-77,-930
498.399,262,-73,-850
498.522,597,-52,-725
498.647,782,-29,-581
498.91,794,-42,-540
499.034,736,-29,-653
499.161,540,-29,-758
499.302,216,-14,-834
499.426,-81,-8,-909
499.55,-280,49,-976
499.674,-282,72,-1018
499.798,-270,120,-998
499.922,-166,98,-953
500.047,-68,74,-929
500.17,132,28,-916
500.294,346,-41,-852
500.419,570,-60,-732
500.543,724,-98,-592
500.666,817,-88,-485
500.79,857,-65,-448
500.914,870,-8,-450
501.038,868,77,-520
501.162,764,105,-608
501.286,562,148,-748
501.41,244,136,-869
501.534,22,133,-964
502.078,-114,110,-986
502.202,-81,164,-981
502.326,76,241,-946
502.45,364,234,-856
502.574,649,225,-702
502.698,842,144,-506
502.822,868,125,-440
502.946,796,90,-512
503.073,612,98,-684
503.198,356,56,-801
503.322,118,10,-892
503.446,-38,-26,-950
503.99,-136,36,-1006
504.114,-68,69,-989
504.238,74,85,-942
504.362,253,60,-866
504.486,448,28,-786
504.61,616,22,-678
504.734,758,41,-581
504.998,854,108,-554
505.122,702,85,-649
505.246,440,76,-804
505.37,110,33,-906
505.495,-130,37,-976
505.898,-222,81,-977
506.022,-142,150,-994
506.146,-52,269,-910
506.27,124,349,-817
506.394,330,386,-680
506.518,546,406,-574
506.642,717,398,-464
506.766,781,372,-412
506.89,801,338,-453
507.014,708,294,-584
507.141,533,268,-722
507.266,240,176,-890
507.39,29,102,-958
508.074,-20,44,-986
508.199,74,41,-962
508.322,253,73,-905
508.446,440,77,-833
508.571,592,114,-765
508.694,640,102,-716
508.818,620,108,-724
508.942,528,90,-752
509.066,321,80,-849
509.19,60,62,-912
509.314,-132,50,-968
509.858,-192,74,-978
509.983,-129,110,-954
510.106,56,138,-912
510.231,221,124,-844
510.354,384,81,-812
511.038,334,-13,-912
511.163,138,-2,-950
511.286,-101,1,-970
511.413,-282,8,-970
512.238,-197,125,-982
512.366,-21,140,-973
512.49,217,150,-942
512.614,392,126,-885
513.018,429,113,-881
513.142,290,110,-916
513.266,76,108,-954
513.39,-122,77,-970
514.074,-65,125,-922
514.198,180,136,-864
514.322,436,117,-790
514.866,493,101,-828
514.99,357,97,-868
515.114,109,78,-926
515.238,-93,58,-961
515.506,-197,86,-965
515.63,-109,70,-965
515.754,105,89,-945
515.878,361,102,-858
516.006,625,109,-725
516.13,773,84,-602
516.254,876,57,-573
516.378,741,21,-620
516.503,553,22,-736
516.626,229,13,-878
516.75,0,56,-966
516.874,-200,53,-990
517.138,-322,30,-993
517.262,-230,24,-1004
517.386,-140,57,-1028
517.51,104,65,-950
517.634,288,108,-866
517.758,548,108,-744
517.882,686,137,-666
518.006,774,160,-626
518.13,726,202,-681
518.254,556,232,-797
518.378,328,206,-913
518.502,116,132,-961
518.626,-45,86,-974
518.75,-136,52,-981
519.014,-137,57,-986
519.138,8,78,-952
519.262,288,52,-868
519.386,573,61,-750
519.51,781,38,-634
519.634,829,69,-580
519.761,761,121,-669
519.886,469,118,-837
520.01,141,116,-953
520.274,-218,80,-946
520.399,-244,77,-954
520.523,-254,68,-973
520.647,-174,33,-981
520.77,-52,28,-992
520.894,168,8,-922
521.018,424,18,-800
521.142,685,1,-644
521.406,786,32,-606
521.53,536,38,-756
521.654,174,52,-926
521.778,-108,42,-1005
521.902,-184,33,-1012
522.166,-84,16,-974
522.29,32,40,-984
522.414,236,33,-922
522.538,500,36,-829
522.662,701,22,-685
522.786,798,57,-629
522.91,725,34,-660
523.034,549,24,-773
523.158,310,17,-880
523.282,64,30,-950
523.406,-100,40,-962
523.793,-129,72,-989
523.918,-86,108,-970
524.043,30,89,-892
524.166,272,60,-805
524.29,554,49,-652
524.414,786,48,-556
524.678,810,18,-562
524.802,550,9,-686
524.926,226,26,-853
525.05,-56,9,-944
525.734,-77,160,-988
525.858,56,221,-940
525.982,340,258,-817
526.106,600,269,-661
526.23,802,252,-522
526.354,822,242,-478
526.478,769,178,-521
526.602,606,166,-677
526.726,345,168,-840
526.85,62,150,-956
526.974,-144,122,-988
527.238,-232,126,-974
527.362,-186,152,-942
527.486,-98,188,-893
527.61,20,210,-816
527.734,245,220,-765
527.86,440,245,-696
527.986,653,245,-649
528.11,714,264,-606
528.234,728,254,-661
528.358,604,234,-737
528.482,369,202,-854
528.606,105,137,-910
528.73,-54,88,-964
529.134,-73,61,-994
529.258,69,46,-952
529.382,288,49,-890
529.506,490,66,-788
529.63,653,122,-744
529.754,742,148,-692
529.878,697,158,-720
530.002,481,114,-804
530.126,194,85,-902
530.25,-42,28,-978
530.374,-176,17,-974
530.762,-261,12,-990
530.886,-320,30,-988
531.01,-385,45,-972
531.274,-274,45,-921
531.398,-92,65,-921
531.522,172,76,-902
531.646,370,106,-868
531.77,574,97,-868
531.898,568,82,-858
532.022,390,98,-889
532.146,69,97,-904
532.27,-192,88,-961
532.394,-370,50,-972
532.518,-465,32,-954
532.642,-456,36,-937
532.766,-362,54,-949
532.89,-182,76,-970
533.014,34,56,-980
533.138,270,46,-920
533.262,502,13,-842
533.386,641,29,-742
533.65,680,26,-692
533.774,572,17,-772
533.898,404,21,-864
534.022,124,25,-960
534.146,-105,33,-970
534.27,-313,25,-968
534.534,-298,49,-973
534.658,-100,114,-964
534.782,156,158,-940
534.906,432,185,-837
535.03,617,170,-750
535.154,726,165,-706
535.278,634,140,-725
535.402,484,126,-793
535.526,286,88,-858
535.65,73,82,-932
535.778,-112,53,-989
536.182,-204,69,-962
536.306,-169,82,-973
536.43,-80,104,-965
536.554,84,124,-912
536.678,370,144,-773
536.802,637,150,-596
536.926,786,220,-462
537.19,744,248,-517
537.314,613,252,-710
537.438,380,222,-890
537.562,120,174,-992
537.686,-193,89,-977
538.23,-374,65,-944
538.354,-357,130,-950
538.478,-265,224,-954
538.602,-94,306,-946
538.726,132,376,-910
538.85,362,398,-860
538.974,544,372,-765
539.099,700,314,-662
539.223,785,280,-620
539.346,733,266,-632
539.47,630,214,-724
539.594,356,138,-806
539.718,62,72,-896
539.846,-236,38,-940
540.111,-362,6,-977
540.234,-306,2,-985
540.358,-148,12,-1010
540.482,36,25,-992
540.606,264,37,-937
540.73,442,46,-840
540.854,620,34,-764
540.978,672,32,-730
541.102,614,30,-752
541.226,482,64,-821
541.35,306,62,-905
541.474,66,65,-958
541.598,-182,28,-958
541.722,-316,50,-952
541.846,-342,84,-953
541.97,-285,152,-958
542.094,-205,193,-961
542.218,-17,224,-954
542.342,230,216,-926
542.466,496,193,-854
542.59,669,169,-746
542.855,754,137,-669
542.978,704,120,-665
543.102,581,144,-733
543.226,413,162,-798
543.35,209,141,-906
543.474,-41,104,-960
543.601,-246,61,-966
543.866,-341,57,-956
543.99,-282,70,-956
544.114,-65,66,-921
544.238,230,58,-854
544.362,554,66,-752
544.492,717,92,-664
544.61,760,126,-620
544.734,682,126,-662
544.858,529,134,-720
544.982,277,105,-824
545.106,-18,92,-893
545.23,-230,56,-960
545.499,-289,85,-964
545.622,-266,136,-961
545.746,-228,194,-960
545.87,-84,168,-942
545.994,144,148,-885
546.119,450,132,-792
546.242,664,157,-688
546.366,794,168,-676
546.489,753,160,-732
546.614,622,184,-840
546.738,256,160,-916
546.862,-2,108,-966
547.266,-120,40,-980
547.39,-28,46,-965
547.514,117,54,-950
547.641,338,64,-874
547.766,533,86,-806
548.03,645,121,-726
548.154,561,140,-800
548.279,393,137,-864
548.402,154,165,-1017
548.526,-102,122,-1021
548.65,-261,116,-1028
549.054,-200,61,-950
549.178,-50,66,-944
549.302,168,82,-912
549.426,409,100,-852
549.551,589,100,-818
549.674,653,128,-784
549.798,654,104,-789
549.922,517,144,-766
550.046,174,101,-877
550.17,-80,76,-944
550.294,-301,29,-989
550.418,-221,18,-946
550.682,-229,60,-977
550.806,-212,69,-964
550.93,-141,54,-966
551.053,-40,33,-974
551.318,84,12,-976
551.582,240,-4,-926
551.71,286,0,-917
551.974,365,-12,-913
552.098,253,16,-932
552.222,96,46,-921
552.346,-166,57,-886
552.47,-312,34,-886
552.594,-448,21,-896
552.998,-425,70,-920
553.122,-358,44,-964
553.246,-269,20,-996
553.37,9,25,-1090
553.494,338,34,-1021
553.618,678,70,-918
553.742,774,60,-693
553.866,786,74,-672
553.989,685,50,-693
554.113,462,22,-817
554.238,106,34,-864
554.362,-164,12,-938
554.486,-265,25,-953
554.75,-118,9,-988
554.874,125,-5,-933
554.998,480,22,-850
555.122,709,50,-700
555.245,801,92,-624
555.369,777,92,-597
555.493,704,50,-670
555.622,562,21,-778
555.746,348,1,-896
555.87,94,-14,-950
555.994,-146,-12,-974
556.119,-268,-34,-964
556.522,-206,-56,-974
556.646,-118,-65,-961
556.77,37,-68,-956
556.894,252,-73,-908
557.018,458,-60,-820
557.142,625,-24,-676
557.266,706,4,-605
557.394,728,22,-618
557.518,652,-17,-713
557.642,525,-34,-804
557.766,338,-61,-866
557.89,177,-42,-908
558.014,53,-38,-940
558.418,48,-32,-980
558.542,102,-37,-976
558.666,198,-64,-946
558.79,385,-70,-834
558.914,598,-56,-746
559.178,745,2,-676
559.301,638,-14,-720
559.425,450,-33,-829
559.55,230,-52,-910
559.678,24,-46,-962
559.802,-108,-42,-974
559.926,-157,-61,-986
560.05,-154,-82,-986
560.174,-82,-106,-953
560.298,58,-81,-937
560.421,273,-84,-896
560.546,508,-68,-829
560.67,676,-60,-766
560.793,669,-88,-705
560.918,606,-112,-758
561.042,412,-149,-832
561.166,269,-138,-934
561.29,61,-166,-968
561.693,-30,-214,-958
561.818,22,-214,-932
561.942,150,-213,-869
562.066,341,-157,-805
562.19,564,-113,-749
562.313,713,-84,-709
562.438,740,-102,-677
562.561,676,-122,-684
562.686,540,-136,-750
562.81,349,-149,-841
562.934,110,-146,-920
563.058,-41,-154,-956
563.322,-60,-140,-992
563.445,18,-129,-988
563.573,200,-129,-949
563.698,429,-140,-845
563.822,637,-154,-749
563.946,749,-124,-661
564.07,749,-93,-668
564.194,682,-33,-734
564.318,509,-41,-822
564.441,284,-17,-892
564.566,44,-9,-918
564.69,-97,21,-953
565.234,-90,64,-989
565.358,46,126,-984
565.482,261,182,-940
565.606,486,165,-828
565.73,677,181,-718
565.994,748,184,-676
566.119,632,120,-742
566.242,425,58,-846
566.366,212,22,-924
566.489,-12,-9,-976
566.614,-128,-16,-986
567.018,-156,-73,-957
567.142,-90,-44,-949
567.265,128,-29,-870
567.389,401,-16,-781
567.514,676,-2,-684
567.782,725,17,-696
567.906,568,-4,-777
568.03,305,9,-881
568.154,36,9,-940
568.838,-126,-12,-930
568.962,14,-6,-888
569.086,272,-1,-802
569.21,585,53,-761
569.334,758,97,-677
569.458,773,142,-658
569.581,669,141,-708
569.706,498,117,-810
569.83,273,92,-906
569.954,40,80,-957
570.638,-61,-2,-972
570.762,54,12,-921
570.885,250,37,-869
571.01,484,49,-774
571.133,666,74,-686
571.258,774,88,-608
571.383,762,84,-594
571.505,656,56,-648
571.629,470,37,-738
571.757,261,25,-850
571.882,82,26,-924
572.005,-40,13,-966
572.55,21,-50,-966
572.674,177,-48,-941
572.798,405,-57,-849
572.922,634,-20,-764
573.046,772,5,-672
573.169,772,24,-676
573.293,633,4,-720
573.418,432,-26,-825
573.542,217,-36,-904
573.666,-26,-34,-930
573.789,-186,-16,-952
574.054,-238,4,-966
574.317,-137,-32,-950
574.442,58,-84,-924
574.566,334,-56,-841
574.689,614,-20,-754
574.813,760,49,-653
575.078,717,-1,-653
575.202,518,-46,-789
575.33,221,-85,-894
575.453,-41,-92,-948
575.858,-185,-89,-989
575.987,-84,-69,-984
576.11,101,-30,-938
576.233,360,-13,-852
576.358,577,16,-737
576.481,740,18,-650
576.606,761,9,-641
576.73,658,-24,-713
576.854,420,-64,-808
576.978,106,-92,-890
577.103,-145,-112,-933
577.366,-277,-112,-965
577.629,-190,-60,-984
577.753,-128,-40,-956
577.878,22,-45,-941
578.002,194,-24,-876
578.126,446,25,-816
578.25,629,88,-713
578.514,678,84,-686
578.638,534,40,-757
578.763,337,-4,-870
578.886,112,-5,-945
579.01,-89,13,-989
579.134,-192,9,-986
579.537,-164,-17,-985
579.662,-104,-28,-969
579.786,56,-40,-970
579.912,217,-53,-905
580.037,401,-48,-812
580.161,562,-40,-717
580.425,684,-25,-729
580.549,581,-29,-778
580.674,454,-17,-869
580.798,298,-46,-920
580.922,118,-54,-965
581.046,-34,-66,-980
581.45,-154,-82,-1001
581.713,-102,-73,-948
581.838,66,-53,-888
581.962,306,-50,-833
582.085,510,-42,-753
582.21,669,-40,-680
582.473,665,-17,-710
582.598,512,-24,-817
582.722,284,-52,-908
582.846,33,-52,-962
582.97,-121,-57,-974
583.233,-113,-33,-960
583.358,62,-8,-940
583.482,313,-6,-862
583.605,565,16,-734
583.73,722,28,-628
583.996,746,56,-657
584.122,608,24,-748
584.245,382,-12,-865
584.37,114,-24,-925
584.494,-130,-6,-973
585.037,-185,-16,-981
585.161,-106,98,-978
585.285,76,145,-956
585.41,278,220,-905
585.533,488,144,-840
585.657,593,137,-774
585.782,617,122,-760
585.905,528,97,-806
586.029,365,48,-886
586.154,134,18,-938
586.277,-77,24,-965
586.681,-148,13,-969
586.805,24,24,-930
586.93,289,34,-872
587.053,521,41,-752
587.177,709,57,-648
587.442,769,80,-606
587.565,614,49,-744
587.689,429,8,-868
587.813,176,-9,-965
587.938,-18,-1,-965
588.065,-136,6,-1000
588.19,-177,12,-1018
588.593,-133,-5,-1036
588.717,-48,-10,-970
588.842,230,-36,-906
588.965,486,-46,-801
589.09,718,-40,-736
589.354,637,-8,-730
589.478,417,-32,-817
589.601,173,-68,-909
589.726,-10,-96,-972
590.13,-78,-24,-993
590.254,-16,-6,-981
590.378,100,9,-954
590.501,278,28,-916
590.625,504,56,-828
590.75,682,100,-717
591.014,745,122,-626
591.138,734,56,-664
591.265,528,25,-769
591.39,294,-34,-866
591.513,-24,-32,-964
591.637,-156,-49,-986
591.902,-156,-6,-978
592.026,-21,69,-948
592.152,138,57,-1037
592.277,365,50,-932
592.402,556,-5,-821
592.525,708,30,-613
592.649,772,62,-569
592.774,761,112,-601
592.897,702,121,-662
593.022,424,124,-816
593.146,201,120,-918
593.409,76,130,-950
593.534,4,102,-962
593.657,-21,82,-984
593.781,-157,114,-1026
593.905,-108,102,-1012
594.03,-44,88,-1040
594.154,117,16,-993
594.278,269,1,-948
594.402,465,-4,-805
594.525,628,16,-756
594.649,696,34,-722
594.773,634,38,-789
594.897,452,33,-854
595.022,208,2,-938
595.146,-12,2,-976
595.549,-60,16,-976
595.674,70,25,-958
595.798,253,-13,-925
595.921,490,4,-790
596.048,657,6,-693
596.174,726,69,-650
596.298,637,72,-709
596.422,438,88,-808
596.545,204,122,-884
596.669,-12,140,-956
596.793,-90,138,-950
596.918,-132,97,-957
597.041,-148,82,-961
597.166,-152,73,-973
597.289,-105,80,-956
597.413,-72,105,-966
597.537,128,133,-932
597.661,352,178,-862
597.785,618,194,-756
598.049,650,186,-754
598.173,545,162,-810
598.298,357,124,-878
598.421,121,86,-937
598.545,-49,53,-970
598.949,-82,58,-966
599.073,90,25,-900
599.198,342,-8,-805
599.321,562,-12,-718
599.445,717,0,-689
599.576,721,44,-688
599.694,638,78,-742
599.818,549,61,-797
599.944,321,56,-904
600.069,68,20,-952
600.613,-108,92,-978
600.738,38,110,-944
600.861,273,101,-885
600.985,516,58,-797
601.109,689,56,-725
601.373,714,46,-678
601.497,601,29,-740
601.621,406,21,-846
601.745,201,8,-936
601.869,29,10,-996
601.993,-58,6,-996
602.397,-30,45,-982
602.521,133,102,-934
602.646,378,125,-812
602.77,630,100,-677
602.893,752,72,-570
603.159,750,104,-609
603.281,646,102,-697
603.405,477,101,-801
603.529,233,78,-870
603.653,18,58,-941
604.181,-72,8,-954
604.309,176,29,-918
604.433,461,40,-844
604.557,690,32,-764
604.821,685,21,-716
604.945,524,10,-766
605.069,250,-8,-858
605.194,-12,-33,-926
605.722,-104,-1,-984
605.845,10,-2,-958
605.969,217,-8,-910
606.093,470,-2,-820
606.221,673,24,-696
606.345,765,44,-586
606.469,798,76,-570
606.593,762,64,-593
606.717,654,49,-706
606.841,413,6,-804
606.965,202,-2,-934
607.089,37,4,-989
0.0,6,8,-344
0.147,20,14,-689
1.386,-61,-69,-1021
1.51,-50,-80,-1020
2.754,-178,-66,-1016
2.878,-362,-76,-937
3.002,-566,-92,-836
3.126,-712,-80,-725
3.25,-800,-97,-634
3.514,-814,-101,-590
3.638,-676,-89,-737
3.762,-448,-78,-913
3.886,-228,-78,-1033
4.013,-66,-65,-1029
4.698,-33,-10,-1052
4.822,-40,5,-1042
5.086,-64,-9,-1013
5.21,-169,-5,-1029
5.334,-336,-16,-948
5.458,-540,-1,-874
5.582,-265,-18,-228
5.706,-536,-37,-450
5.97,-710,-81,-737
6.094,-533,-112,-833
6.218,-262,-140,-982
6.342,-72,-145,-1049
6.466,49,-126,-1072
7.29,-65,-12,-1053
7.414,-210,-6,-1021
7.538,-417,-17,-910
7.662,-680,-29,-702
7.786,-852,-36,-528
7.91,-926,-26,-461
8.034,-853,-28,-562
8.159,-650,-48,-749
8.286,-364,-72,-929
8.41,-120,-92,-1021
9.514,-110,-21,-1029
9.638,-238,-48,-1008
9.762,-438,-85,-916
9.886,-646,-112,-762
10.01,-833,-122,-570
10.134,-936,-116,-422
10.258,-982,-113,-389
10.382,-912,-96,-498
10.506,-737,-62,-686
10.63,-438,-44,-886
10.754,-169,-30,-1012
11.158,12,-45,-1034
11.283,13,-2,-998
11.546,-4,6,-1018
11.67,-94,-50,-1032
11.794,-300,-52,-996
11.918,-562,-64,-814
12.042,-805,-30,-584
12.166,-933,-57,-354
12.29,-1004,-45,-314
12.414,-885,-48,-468
12.542,-641,-61,-778
12.666,-325,-53,-1010
12.79,-113,-58,-1112
12.914,-34,-20,-1054
13.598,-69,-22,-1073
13.723,-180,-5,-1040
13.846,-333,-22,-982
13.97,-542,-57,-802
14.094,-780,-121,-558
14.218,-942,-132,-298
14.342,-1029,-120,-130
14.466,-1017,-94,-166
14.59,-901,-50,-361
14.714,-666,-14,-644
14.838,-326,-1,-908
14.962,-114,-45,-1017
15.226,-33,-98,-1029
15.49,-22,-53,-1020
15.894,-118,-65,-1044
16.018,-369,-56,-930
16.142,-672,-33,-629
16.266,-918,-14,-282
16.39,-1018,-54,-44
16.514,-1037,-82,-36
16.642,-997,-64,-214
16.766,-826,-2,-493
16.89,-534,-14,-772
17.014,-262,-60,-960
17.698,-30,-142,-1034
17.962,-77,-130,-1034
18.086,-196,-125,-1030
18.21,-425,-106,-892
18.334,-700,-76,-622
18.458,-910,-69,-281
18.582,-1008,-98,-36
18.846,-1033,-125,-21
18.97,-954,-58,-250
19.094,-760,12,-556
19.218,-458,30,-844
19.342,-190,-1,-1000
19.466,-29,-56,-1044
19.73,-13,-50,-1036
19.994,-25,-41,-1048
20.258,-92,-65,-1050
20.382,-253,-57,-1021
20.506,-480,-50,-885
20.63,-720,-44,-585
20.757,-926,-34,-201
20.882,-1029,-46,68
21.006,-1068,-61,133
21.131,-1022,-76,-77
21.254,-897,-92,-389
21.378,-698,-70,-704
21.502,-422,-74,-901
21.626,-214,-68,-1001
21.75,-61,-74,-1048
21.874,-13,-37,-1040
22.558,-60,9,-1066
22.682,-213,-8,-1050
22.806,-476,-42,-913
22.93,-749,-60,-620
23.054,-953,-60,-265
23.178,-1026,-62,5
23.442,-1040,-48,76
23.566,-992,-9,-165
23.69,-849,42,-477
23.814,-612,30,-753
23.938,-333,5,-929
24.062,-145,-45,-998
24.326,-52,-33,-1026
24.87,-9,-72,-1036
24.998,-49,-60,-1068
25.126,-158,-106,-1057
25.25,-394,-96,-905
25.374,-665,-86,-578
25.498,-918,-28,-218
25.762,-1018,-16,-108
25.886,-833,-18,-408
26.01,-538,-5,-740
26.134,-204,-5,-974
26.258,-4,6,-1058
26.382,49,2,-1044
26.65,24,-44,-1025
27.054,-44,-125,-982
27.178,-50,-122,-993
27.302,-100,-141,-1004
27.426,-200,-130,-1008
27.55,-468,-157,-828
27.674,-754,-154,-550
27.798,-970,-100,-260
28.062,-1033,-69,-169
28.186,-969,-68,-318
28.314,-774,-54,-490
28.438,-462,-68,-744
28.562,-160,-113,-934
28.966,37,-122,-1022
29.514,-29,-26,-1030
29.638,-98,-9,-1028
29.762,-241,0,-992
29.886,-476,9,-848
30.01,-746,18,-601
30.134,-929,34,-370
30.398,-926,49,-380
30.522,-758,52,-600
30.646,-460,30,-850
30.77,-192,-21,-1009
31.594,-42,-57,-1040
31.718,-192,-60,-1012
31.842,-430,-52,-896
31.966,-693,-10,-670
32.09,-892,18,-405
32.214,-1012,34,-209
32.338,-1032,44,-180
32.462,-933,60,-357
32.586,-705,64,-618
32.71,-373,25,-886
32.834,-106,-18,-1009
33.381,-12,-26,-1026
33.506,-90,-45,-1037
33.63,-270,-9,-972
33.754,-538,40,-784
33.878,-818,85,-474
34.002,-976,76,-192
34.266,-1000,108,-146
34.39,-818,93,-433
34.514,-502,61,-773
34.638,-185,13,-989
34.762,-2,6,-1057
35.43,-54,-1,-1038
35.554,-150,32,-1040
35.678,-328,64,-961
35.802,-590,89,-730
35.926,-844,98,-370
36.05,-1000,84,-105
36.174,-1037,66,-69
36.298,-972,48,-262
36.422,-765,21,-556
36.546,-461,0,-853
36.674,-154,-28,-1022
36.798,-2,-26,-1056
37.342,-49,-37,-1044
37.466,-169,-58,-1029
37.594,-390,-82,-918
37.718,-678,-73,-657
37.842,-910,-5,-280
37.966,-1029,60,-14
38.09,-1030,88,18
38.218,-957,72,-213
38.342,-738,32,-544
38.466,-406,-5,-849
38.59,-109,-54,-1013
38.714,28,-66,-1040
39.258,-24,2,-1050
39.382,-146,18,-1021
39.506,-368,38,-937
39.63,-630,56,-744
39.754,-838,70,-540
39.878,-945,80,-410
40.002,-929,85,-446
40.126,-786,70,-609
40.25,-529,48,-809
40.374,-250,2,-978
40.498,-45,-21,-1045
41.306,-24,-10,-1040
41.43,-168,-22,-1013
41.554,-416,-36,-881
41.681,-712,-26,-602
41.806,-937,4,-278
41.93,-1036,18,-124
42.053,-988,18,-234
42.178,-778,-34,-534
42.301,-481,-80,-817
42.426,-173,-109,-985
43.11,-48,-33,-1036
43.234,-214,14,-1001
43.358,-470,72,-833
43.481,-773,142,-482
43.606,-956,157,-126
43.73,-1038,172,33
43.854,-977,150,-149
43.978,-777,124,-474
44.102,-453,1,-853
44.226,-184,-85,-1006
44.354,-30,-113,-1070
44.898,-17,-53,-1042
45.022,-94,-60,-1032
45.146,-292,-56,-968
45.27,-569,-13,-753
45.394,-837,48,-352
45.518,-984,92,-66
45.642,-1036,108,40
45.769,-960,102,-205
45.894,-760,65,-506
46.018,-482,30,-816
46.142,-217,0,-997
46.266,-70,-20,-1054
47.09,-124,-84,-1041
47.214,-320,-68,-972
47.338,-648,-30,-776
47.462,-898,56,-426
47.586,-1048,88,-157
47.71,-1041,101,-70
47.834,-969,80,-282
47.958,-762,42,-574
48.081,-482,5,-841
48.206,-194,-5,-990
48.33,-29,-20,-1033
48.734,108,-34,-481
48.857,73,-48,-482
48.982,41,-52,-494
49.105,-176,-65,-1016
49.23,-397,-56,-888
49.354,-697,-48,-649
49.477,-916,-1,-333
49.726,-974,24,-237
49.85,-802,-30,-502
49.978,-549,-74,-802
50.102,-252,-114,-985
50.225,-48,-132,-1068
50.489,61,-161,-1044
50.753,42,-100,-1050
50.878,18,-50,-1069
51.001,-181,-20,-1010
51.126,-469,-37,-826
51.249,-781,-58,-537
51.373,-981,-76,-284
51.498,-1021,-74,-258
51.621,-878,-62,-453
51.746,-580,-45,-745
51.869,-234,-13,-965
51.994,-8,-6,-1049
52.118,85,-1,-1038
52.242,90,-18,-981
52.366,41,-50,-938
52.489,25,-76,-950
52.613,-34,-102,-998
52.738,-132,-84,-1016
52.861,-360,-74,-917
52.985,-646,-52,-670
53.109,-890,-29,-368
53.373,-1009,8,-160
53.498,-860,-4,-409
53.622,-609,-28,-698
53.746,-300,-66,-944
53.873,-36,-81,-1036
54.557,28,-45,-1041
54.681,-89,-65,-1029
54.806,-289,-90,-970
54.929,-572,-104,-809
55.054,-782,-80,-633
55.178,-866,-58,-557
55.302,-789,-41,-636
55.425,-616,-53,-793
55.549,-385,-50,-900
55.673,-138,-57,-984
55.797,29,-53,-1010
56.621,-65,-53,-1033
56.745,-245,-65,-981
56.869,-501,-94,-825
56.993,-784,-93,-585
57.117,-938,-102,-405
57.241,-970,-98,-386
57.365,-833,-121,-554
57.489,-601,-129,-766
57.614,-313,-133,-936
57.738,-88,-126,-1020
58.529,-40,-32,-1040
58.653,-166,10,-1009
58.777,-424,62,-880
58.901,-674,74,-686
59.026,-848,72,-534
59.149,-848,53,-536
59.273,-696,29,-677
59.398,-420,-5,-866
59.521,-145,-38,-1016
59.645,-6,-36,-1050
60.329,-64,-33,-1030
60.453,-212,-28,-970
60.577,-496,-1,-837
60.701,-774,41,-669
60.825,-929,61,-541
60.949,-918,64,-534
61.074,-784,10,-677
61.197,-577,-22,-858
61.321,-304,-86,-998
61.445,-98,-90,-1037
62.13,-1,-152,-1072
62.253,-108,-160,-1060
62.38,-320,-152,-968
62.505,-570,-125,-768
62.63,-844,-124,-549
62.754,-965,-157,-405
62.877,-981,-140,-354
63.001,-828,-142,-506
63.125,-605,-116,-717
63.249,-326,-120,-890
63.373,-65,-92,-1005
63.637,68,-60,-1054
64.041,-8,-77,-1041
64.165,-137,-72,-1018
64.289,-337,-61,-944
64.413,-621,-44,-724
64.538,-865,-32,-388
64.661,-1012,-46,-136
64.785,-1045,-42,-85
64.909,-938,-42,-306
65.033,-716,-68,-608
65.158,-408,-110,-868
65.281,-121,-148,-1032
66.105,-101,-57,-1029
66.229,-288,-28,-980
66.354,-566,-13,-805
66.48,-836,14,-516
66.745,-982,36,-305
66.869,-798,6,-542
66.993,-536,1,-770
67.117,-245,13,-977
67.241,-68,37,-1030
68.049,-58,60,-1045
68.174,-261,48,-940
68.297,-584,5,-753
68.421,-886,8,-401
68.545,-1026,13,-180
68.669,-1024,50,-104
68.793,-922,46,-341
68.917,-690,32,-656
69.041,-361,0,-936
69.165,-72,-30,-1049
69.289,89,-44,-1070
69.413,113,-60,-1036
69.537,82,-69,-1026
69.801,40,-34,-1029
70.065,-37,6,-1005
70.189,-206,6,-966
70.313,-484,17,-849
70.437,-778,17,-630
70.561,-969,1,-402
70.829,-977,2,-346
70.953,-805,22,-541
71.078,-518,18,-766
71.201,-134,-20,-952
71.325,136,-24,-1004
71.589,234,-30,-1001
71.713,162,-48,-1006
71.838,92,-28,-1021
72.102,12,4,-1034
72.225,-73,13,-1032
72.349,-298,-13,-968
72.473,-608,-41,-724
72.597,-900,-57,-374
72.861,-1057,-41,-78
72.985,-985,-29,-252
73.109,-821,-12,-510
73.233,-544,-18,-801
73.357,-262,-21,-962
73.481,-56,-25,-1020
74.445,-116,13,-1009
74.569,-342,-18,-885
74.693,-693,-66,-581
74.817,-934,-102,-244
75.085,-1049,-69,-69
75.209,-932,-76,-332
75.333,-664,-57,-636
75.457,-300,-28,-902
75.581,-56,-12,-1018
76.249,-53,-13,-1056
76.373,-200,-12,-1024
76.497,-440,-21,-873
76.621,-733,-36,-572
76.745,-938,-70,-220
76.869,-1046,-108,0
76.993,-1037,-117,-22
77.117,-888,-121,-304
77.241,-616,-92,-652
77.365,-285,-58,-926
77.489,-66,-28,-1040
78.173,-62,-33,-1048
78.297,-238,-45,-994
78.421,-505,-61,-832
78.545,-777,-58,-518
78.669,-952,-84,-137
78.793,-1038,-121,124
78.917,-1033,-129,109
79.044,-878,-128,-225
79.169,-590,-73,-656
79.293,-266,-32,-942
79.417,-54,20,-1050
80.101,-18,29,-1046
80.225,-141,-12,-1013
80.349,-382,-57,-852
80.473,-730,-76,-550
80.597,-982,-72,-193
80.721,-1065,-53,-98
80.845,-849,-102,-336
80.97,-498,-78,-753
81.093,-193,-62,-1005
81.761,-44,-33,-1044
81.885,-193,-42,-1016
82.009,-426,-62,-898
82.133,-710,-68,-646
82.257,-930,-80,-284
82.381,-1062,-62,-42
82.505,-1056,-61,-44
82.629,-880,-66,-344
82.753,-572,-21,-701
82.877,-260,26,-952
83.949,-80,21,-1054
84.074,-164,32,-1037
84.197,-342,50,-900
84.321,-621,85,-678
84.445,-866,120,-406
84.569,-1005,130,-238
84.693,-1049,126,-180
84.817,-957,126,-314
84.941,-809,117,-541
85.065,-536,114,-793
85.189,-252,54,-1005
85.313,-57,28,-1074
85.717,5,-20,-1010
85.841,-20,-36,-1014
86.385,-196,-88,-974
86.509,-428,-90,-825
86.633,-744,-49,-465
86.757,-972,-5,-141
86.881,-1077,26,24
87.005,-1045,-2,-105
87.129,-890,-26,-384
87.253,-588,-2,-697
87.377,-220,40,-956
87.504,-10,66,-1041
88.189,-72,-34,-1033
88.317,-209,-50,-990
88.441,-437,-77,-860
88.565,-713,-74,-581
88.689,-912,-61,-250
88.813,-1034,-29,20
88.937,-1037,-6,41
89.061,-970,-4,-176
89.185,-769,-5,-522
89.309,-446,-18,-818
89.433,-140,-9,-994
89.961,14,-45,-1053
90.085,-50,-44,-1054
90.209,-200,-52,-1017
90.333,-445,-34,-860
90.457,-705,-18,-601
90.581,-928,10,-224
90.705,-1052,5,34
90.829,-1077,10,80
90.953,-976,-16,-165
91.077,-782,-52,-497
91.201,-492,-98,-804
91.325,-229,-149,-980
92.133,-50,-72,-1037
92.257,-178,-65,-1096
92.381,-397,-78,-989
92.505,-690,-80,-678
92.629,-920,-85,-190
92.754,-1046,-101,69
92.877,-1028,-110,29
93.001,-925,-141,-266
93.125,-666,-137,-626
93.249,-348,-93,-898
93.373,-69,-53,-1032
93.777,5,58,-1061
93.901,-78,82,-1044
94.025,-256,117,-1014
94.149,-545,120,-869
94.273,-848,82,-572
94.397,-1060,54,-260
94.521,-1104,37,-130
94.645,-1009,52,-270
94.769,-761,6,-552
94.893,-416,-17,-845
95.017,-146,-50,-990
95.141,-49,-54,-1048
95.685,-105,-25,-1040
95.812,-254,8,-961
95.937,-498,18,-824
96.061,-749,10,-580
96.185,-950,-2,-289
96.309,-1054,-10,-49
96.433,-1068,10,-9
96.557,-968,-18,-217
96.681,-737,-41,-577
96.805,-386,-52,-874
96.929,-121,-38,-1029
97.893,-156,25,-1042
98.018,-392,0,-925
98.141,-690,-33,-638
98.265,-934,-53,-268
98.389,-1036,-45,-13
98.513,-1058,-30,33
98.637,-981,-26,-173
98.761,-816,-24,-478
98.885,-537,-56,-768
99.009,-261,-81,-954
99.273,-50,-94,-1028
99.817,-64,-37,-1024
99.942,-125,-14,-1008
100.069,-298,-21,-940
100.193,-544,-22,-770
100.317,-821,-6,-468
100.441,-993,21,-216
100.565,-1046,37,-152
100.689,-957,42,-360
100.813,-686,56,-646
100.937,-378,34,-900
101.061,-141,10,-1002
101.745,-64,17,-1036
101.869,-144,33,-1021
101.993,-305,22,-981
102.117,-518,17,-840
102.241,-738,9,-617
102.365,-922,16,-330
102.489,-1030,32,-150
102.613,-1029,16,-194
102.737,-878,-25,-416
102.861,-556,-54,-742
102.985,-192,-29,-948
103.109,46,-2,-1050
103.233,108,-1,-1041
103.917,-106,-20,-1028
104.041,-277,-29,-981
104.168,-556,-44,-794
104.293,-802,-50,-465
104.417,-986,-54,-186
104.541,-1036,-44,-65
104.665,-1025,-45,-164
104.789,-897,-41,-369
104.913,-637,-37,-652
105.037,-308,-45,-902
105.161,-74,-64,-1030
105.985,-57,-86,-1052
106.109,-220,-93,-1016
106.233,-482,-106,-850
106.357,-768,-108,-565
106.481,-952,-102,-290
106.745,-1001,-85,-222
106.869,-869,-85,-420
106.993,-617,-108,-677
107.121,-316,-122,-916
107.245,-114,-116,-1026
108.209,-88,-49,-1057
108.333,-262,-45,-1000
108.46,-508,-52,-830
108.585,-778,-48,-554
108.709,-965,-49,-256
108.973,-1028,-26,-144
109.097,-872,-36,-418
109.221,-593,-28,-714
109.345,-292,-36,-953
109.469,-94,-4,-1026
109.733,-2,1,-1005
109.857,28,-13,-1034
110.261,-17,-9,-1014
110.385,-157,-12,-998
110.509,-288,-8,-990
110.633,-469,-34,-936
110.757,-653,-70,-753
110.881,-840,-166,-557
111.005,-926,-194,-438
111.129,-901,-205,-502
111.253,-784,-133,-626
111.377,-620,-66,-797
111.501,-388,-10,-960
111.625,-216,24,-1030
111.749,-118,50,-1028
112.573,-28,85,-1036
112.701,-74,102,-1040
112.825,-234,85,-996
112.949,-460,13,-914
113.073,-672,-82,-780
113.197,-790,-137,-653
113.461,-840,-122,-564
113.585,-797,-85,-597
113.709,-700,-46,-710
113.833,-496,-28,-865
113.957,-221,-18,-1016
114.081,-30,-5,-1064
114.205,70,45,-1040
114.609,85,62,-1012
114.733,33,53,-1013
114.857,-41,22,-1038
114.981,-181,-16,-1032
115.105,-388,-74,-1000
115.229,-698,-89,-677
115.353,-909,-100,-364
115.477,-1044,-58,-117
115.601,-956,-78,-252
115.725,-760,-72,-536
115.849,-381,-146,-878
115.972,-117,-121,-1061
116.097,40,-130,-1097
116.644,21,-32,-1034
116.769,6,21,-1053
116.893,-48,89,-1052
117.018,-174,117,-1006
117.141,-410,93,-870
117.265,-690,56,-621
117.389,-933,12,-350
117.513,-996,8,-257
117.637,-834,-8,-441
117.761,-500,33,-760
117.885,-152,38,-984
118.009,32,41,-1050
118.973,-36,16,-1070
119.097,-173,40,-1021
119.221,-434,56,-842
119.345,-728,72,-529
119.468,-960,62,-216
119.733,-1036,32,-189
119.857,-785,-13,-496
119.981,-412,-52,-820
120.105,-80,-105,-1010
120.369,64,-69,-1038
120.913,-52,29,-1048
121.041,-198,45,-993
121.165,-478,50,-798
121.288,-780,54,-440
121.413,-994,56,-128
121.537,-1024,61,-81
121.66,-854,12,-345
121.785,-552,-22,-734
121.909,-242,-24,-994
122.033,-78,22,-1080
122.157,-34,42,-1042
122.701,-106,52,-1032
122.825,-209,18,-1034
122.949,-414,-1,-909
123.073,-688,-8,-602
123.197,-921,0,-201
123.46,-1030,-8,-46
123.585,-914,-14,-328
123.709,-689,-24,-660
123.833,-384,-32,-914
123.957,-185,-8,-1016
124.221,-50,40,-1022
125.044,-44,44,-1053
125.172,-165,32,-1022
125.297,-398,-2,-902
125.425,-720,2,-533
125.549,-941,-1,-186
125.672,-1049,18,-6
125.797,-897,28,-176
125.921,-670,12,-537
126.044,-353,-28,-848
126.169,-149,-66,-1029
126.292,-10,-56,-1054
127.116,-13,48,-1029
127.241,-72,56,-1033
127.364,-193,78,-1004
127.489,-426,82,-878
127.613,-709,56,-608
127.737,-957,4,-273
127.86,-1069,-32,-1
127.985,-1065,-33,18
128.108,-909,-52,-241
128.232,-641,-61,-605
128.356,-342,-52,-906
128.481,-140,-21,-1012
129.024,-9,40,-1037
129.431,-17,66,-1025
129.697,-117,90,-1037
129.821,-253,66,-1025
129.944,-480,29,-890
130.068,-736,10,-602
130.193,-938,-12,-220
130.317,-1058,-13,-4
130.441,-1014,-32,-101
130.564,-841,-21,-424
130.688,-541,-17,-805
130.812,-228,18,-1022
130.937,-50,48,-1088
131.621,-46,48,-1057
131.744,-225,28,-981
131.869,-513,-8,-750
131.992,-828,-24,-361
132.116,-1001,-28,-49
132.24,-1056,-13,24
132.364,-944,-14,-208
132.489,-684,-12,-574
132.612,-334,1,-909
132.737,-78,26,-1050
132.861,13,50,-1066
134.088,-121,41,-1040
134.213,-248,53,-1002
134.337,-465,58,-845
134.461,-808,88,-442
134.584,-1018,93,-121
134.708,-1070,94,-64
134.833,-798,13,-398
134.956,-454,-21,-782
135.08,-142,-38,-1014
135.205,0,10,-1072
136.448,-70,50,-1052
136.573,-225,44,-1009
136.696,-518,37,-762
136.82,-861,46,-302
137.084,-1052,41,1
137.209,-845,-6,-350
137.332,-561,-25,-712
137.456,-250,-13,-984
137.58,-46,4,-1073
137.704,21,20,-1072
138.373,-25,-1,-1038
138.496,-89,6,-1049
138.621,-273,-14,-968
138.744,-580,-30,-694
138.868,-864,-40,-314
138.992,-1028,5,-80
139.116,-905,-9,-244
139.24,-645,-12,-601
139.364,-302,-24,-934
139.489,-70,17,-1038
140.172,-60,68,-1046
140.296,-180,86,-1029
140.42,-421,96,-870
140.545,-716,90,-584
140.668,-954,81,-273
140.792,-1046,82,-153
140.917,-973,93,-278
141.04,-730,84,-558
141.164,-400,54,-844
141.288,-117,26,-1008
142.656,-109,-50,-1030
142.78,-305,-54,-958
142.904,-581,-76,-757
143.028,-866,-53,-457
143.292,-960,-18,-340
143.416,-745,-13,-612
143.54,-492,58,-881
143.664,-182,53,-1020
143.788,-21,32,-1052
143.912,69,-37,-1029
144.036,34,-8,-1033
144.16,30,-10,-1018
144.564,-9,-9,-1028
144.688,-84,-20,-1037
144.812,-217,-17,-1006
144.936,-425,0,-869
145.06,-700,30,-625
145.184,-877,13,-418
145.308,-981,6,-356
145.432,-925,-2,-461
145.556,-784,1,-617
145.68,-508,-16,-860
145.804,-204,-12,-1005
145.928,-18,9,-1070
146.613,-2,34,-1041
146.74,-120,4,-1021
146.864,-349,-42,-905
146.988,-634,-89,-676
147.112,-878,-102,-360
147.236,-1012,-92,-194
147.36,-917,-121,-304
147.484,-686,-146,-614
147.608,-364,-164,-909
147.732,-161,-113,-1030
147.857,-57,-65,-1064
148.54,-98,4,-1034
148.664,-238,-17,-994
148.788,-530,-46,-790
148.912,-825,-56,-440
149.177,-961,-22,-258
149.3,-706,-21,-581
149.424,-373,-4,-880
149.548,-138,8,-1024
150.512,-134,106,-1033
150.636,-305,138,-948
150.76,-596,162,-760
150.885,-846,154,-466
151.011,-1005,161,-281
151.136,-981,160,-280
151.26,-788,169,-526
151.385,-470,161,-808
151.508,-193,117,-992
152.211,-102,85,-1038
152.328,-188,49,-1028
152.44,-393,24,-920
152.564,-664,25,-698
152.688,-905,40,-437
152.952,-968,32,-352
153.076,-769,36,-568
153.2,-460,58,-829
153.324,-190,77,-974
153.448,-69,77,-1018
153.572,-70,57,-1009
154.116,-149,54,-1036
154.24,-313,21,-969
154.364,-608,-12,-744
154.488,-870,-28,-446
154.753,-946,-16,-348
154.876,-726,2,-616
155.0,-420,49,-876
155.124,-132,41,-1040
155.253,-9,45,-1062
155.796,-73,5,-1036
155.92,-210,-5,-1001
156.044,-454,-18,-866
156.168,-750,-17,-588
156.292,-949,-13,-358
156.416,-1006,-10,-302
156.54,-853,-26,-485
156.664,-616,-33,-736
156.788,-310,-14,-941
156.912,-80,13,-1044
157.036,14,14,-1054
157.72,-61,-20,-1036
157.844,-258,-32,-940
157.968,-588,-42,-728
158.092,-884,-58,-474
158.216,-997,-60,-356
158.34,-918,-58,-424
158.464,-690,-38,-656
158.588,-406,-44,-878
158.712,-144,-73,-1010
159.539,-133,13,-1016
159.664,-313,37,-900
159.788,-584,68,-708
159.912,-824,84,-516
160.036,-932,97,-464
160.16,-842,102,-550
160.284,-604,50,-746
160.408,-317,30,-938
160.532,-118,33,-1036
161.076,-112,81,-1041
161.2,-185,94,-1026
161.324,-325,89,-945
161.448,-564,113,-777
161.572,-790,97,-553
161.836,-957,89,-400
161.96,-869,109,-520
162.084,-674,105,-670
162.208,-416,84,-865
162.332,-172,60,-1002
162.456,-65,73,-1057
162.72,-54,89,-1053
162.984,-56,58,-1073
163.108,-89,14,-1056
163.232,-210,6,-1040
163.356,-457,-5,-857
163.48,-757,-29,-594
163.607,-950,-46,-353
163.732,-981,-33,-357
163.856,-794,-21,-554
163.98,-520,-26,-822
164.104,-184,-30,-997
164.228,10,-17,-1033
164.492,58,10,-996
164.896,-54,-4,-1042
165.02,-229,-18,-989
165.144,-502,-14,-832
165.268,-805,5,-576
165.392,-958,20,-400
165.516,-966,40,-373
165.64,-768,26,-566
165.764,-512,29,-790
165.888,-233,20,-1000
166.012,-98,40,-1045
166.696,-125,89,-1013
166.82,-322,117,-930
166.944,-608,96,-708
167.068,-861,80,-445
167.192,-998,76,-293
167.316,-992,102,-329
167.44,-804,88,-569
167.564,-524,69,-801
167.691,-209,48,-981
167.816,-34,42,-1041
168.36,-16,34,-1048
168.484,-129,38,-1037
168.608,-348,45,-924
168.732,-617,57,-654
168.856,-860,61,-386
168.98,-969,65,-288
169.104,-905,69,-416
169.228,-641,72,-680
169.352,-305,73,-914
169.476,-66,74,-1041
170.02,-30,73,-1049
170.144,-122,53,-1052
170.268,-285,17,-1009
170.392,-558,2,-824
170.516,-800,6,-592
170.78,-949,36,-469
170.904,-789,30,-645
171.028,-545,28,-829
171.152,-268,17,-985
171.976,-192,8,-1008
172.104,-441,5,-852
172.228,-749,13,-561
172.352,-929,18,-390
172.476,-957,25,-448
172.6,-777,17,-657
172.724,-485,30,-885
172.848,-177,46,-992
173.532,-24,64,-1040
173.656,-145,54,-1024
173.78,-357,30,-922
173.904,-612,4,-720
174.028,-842,12,-488
174.292,-932,54,-449
174.416,-725,69,-645
174.54,-442,80,-866
174.664,-177,62,-989
175.348,-24,50,-1004
175.472,-121,94,-984
175.596,-302,102,-933
175.72,-573,128,-792
175.844,-793,106,-618
176.108,-854,126,-508
176.232,-645,110,-697
176.36,-409,89,-881
176.484,-200,77,-1024
177.152,-93,98,-1025
177.276,-176,109,-1018
177.4,-366,77,-925
177.524,-649,48,-692
177.648,-856,0,-466
177.772,-957,4,-382
177.896,-872,42,-458
178.02,-652,82,-694
178.144,-358,104,-885
178.268,-118,97,-1040
178.952,-93,84,-1021
179.076,-228,82,-988
179.2,-448,58,-873
179.324,-724,52,-676
179.448,-904,28,-458
179.572,-973,42,-360
179.696,-833,30,-505
179.82,-586,33,-758
179.944,-250,42,-1012
180.068,-50,78,-1076
180.192,37,100,-1064
180.58,2,97,-1053
180.704,-77,73,-1050
180.828,-264,50,-986
180.952,-538,49,-814
181.076,-806,57,-550
181.34,-898,88,-426
181.464,-661,66,-668
181.588,-366,62,-905
181.712,-162,49,-1017
182.396,-120,29,-1040
182.52,-276,8,-978
182.644,-549,-1,-794
182.768,-794,-5,-581
183.032,-884,-6,-498
183.156,-650,-12,-689
183.28,-341,34,-925
183.404,-92,22,-1021
183.948,-2,12,-1050
184.072,-62,44,-1037
184.196,-234,44,-990
184.32,-533,78,-785
184.444,-798,84,-552
184.572,-929,97,-410
184.696,-873,89,-481
184.824,-673,72,-713
184.948,-433,72,-905
185.072,-209,60,-1024
185.196,-82,57,-1048
185.88,-80,41,-1037
186.004,-272,24,-968
186.128,-569,5,-804
186.252,-778,-38,-626
186.516,-814,-46,-610
186.64,-621,-33,-784
186.764,-326,-38,-964
186.888,-84,-53,-1030
187.712,-76,-1,-1060
187.836,-292,48,-952
187.96,-625,88,-693
188.084,-870,121,-436
188.208,-954,140,-345
188.332,-814,146,-509
188.456,-573,152,-744
188.58,-240,141,-960
188.704,-12,110,-1038
188.829,97,80,-1041
189.075,46,72,-1014
189.2,5,73,-1020
189.324,-37,80,-1045
189.448,-137,78,-996
189.572,-381,77,-872
189.696,-682,81,-606
189.823,-909,82,-422
189.944,-962,108,-400
190.068,-848,93,-550
190.192,-614,97,-781
190.316,-348,89,-932
190.44,-152,77,-1042
190.564,-88,50,-1037
190.688,-64,50,-1042
190.952,-126,80,-1028
191.075,-320,78,-953
191.2,-577,65,-773
191.324,-810,57,-577
191.448,-926,21,-470
191.572,-913,32,-502
191.697,-782,25,-641
191.82,-520,49,-825
191.944,-217,33,-994
192.068,-32,37,-1036
192.192,36,0,-1034
192.456,-1,24,-1029
192.86,-133,132,-1021
192.984,-366,138,-909
193.112,-662,116,-694
193.236,-881,104,-486
193.36,-949,128,-418
193.484,-889,166,-509
193.608,-648,162,-684
193.732,-345,108,-886
193.855,-81,66,-1018
194.68,-89,21,-1030
194.804,-270,32,-961
194.928,-518,34,-820
195.052,-744,30,-662
195.176,-852,58,-561
195.3,-885,97,-554
195.424,-762,100,-645
195.548,-502,65,-802
195.672,-177,-12,-990
195.796,9,-22,-1046
195.92,81,-13,-1070
196.184,45,33,-1044
196.308,-8,33,-1026
196.432,-169,29,-992
196.556,-397,17,-888
196.68,-756,36,-628
196.944,-1004,56,-417
197.068,-793,38,-601
197.196,-577,60,-785
197.323,-246,42,-968
197.448,-73,24,-1044
198.272,-216,68,-985
198.396,-484,114,-806
198.519,-780,138,-549
198.644,-940,136,-413
198.768,-948,130,-457
198.891,-829,129,-610
199.016,-598,105,-788
199.14,-332,61,-945
199.263,-134,5,-1008
199.527,-34,1,-997
199.792,-62,53,-1034
199.916,-117,70,-1037
200.04,-248,120,-1017
200.163,-468,144,-880
200.288,-730,126,-672
200.412,-909,82,-490
200.536,-937,81,-462
200.66,-865,98,-556
200.783,-693,81,-716
200.908,-441,29,-876
201.032,-184,-5,-993
201.156,-28,4,-1029
201.704,-2,33,-1060
201.828,-104,-1,-1029
201.951,-334,-17,-922
202.075,-636,-29,-713
202.199,-868,-18,-513
202.464,-962,-20,-402
202.588,-856,-4,-538
202.712,-624,-12,-752
202.836,-345,9,-946
202.96,-120,12,-1037
203.644,-46,36,-1041
203.768,-186,48,-1000
203.892,-448,62,-862
204.015,-746,84,-621
204.14,-941,77,-409
204.264,-1001,89,-344
204.388,-929,85,-450
204.511,-764,73,-648
204.635,-501,44,-830
204.76,-204,12,-977
204.883,-17,8,-1024
205.567,-50,14,-1033
205.696,-212,13,-988
205.819,-468,6,-853
205.944,-729,4,-672
206.076,-893,9,-506
206.331,-925,34,-481
206.456,-824,29,-597
206.579,-644,8,-746
206.703,-410,-4,-893
206.828,-176,-9,-1005
207.512,-48,-1,-1037
207.635,-144,24,-1018
207.76,-305,40,-949
207.884,-528,30,-813
208.008,-740,-1,-636
208.132,-877,-6,-482
208.255,-928,2,-434
208.379,-892,16,-501
208.503,-778,8,-649
208.631,-568,-5,-800
208.756,-324,-18,-953
208.88,-160,-28,-1017
209.704,-165,-12,-1017
209.827,-362,-20,-926
209.955,-645,-32,-741
210.079,-845,-32,-542
210.343,-925,-36,-461
210.467,-805,-69,-594
210.591,-578,-84,-761
210.715,-298,-46,-956
210.839,-114,-13,-1033
211.383,-48,10,-1117
211.508,-89,-32,-1124
211.631,-265,-38,-1064
211.756,-521,-40,-794
211.879,-796,2,-580
212.003,-930,13,-418
212.268,-929,16,-458
212.391,-762,5,-610
212.516,-505,-16,-818
212.64,-217,-9,-992
212.763,-73,-4,-1050
213.307,-70,-22,-1022
213.431,-228,-44,-969
213.555,-484,-61,-825
213.679,-741,-36,-622
213.803,-909,-21,-445
214.07,-934,-8,-397
214.196,-800,-37,-566
214.319,-565,-49,-769
214.443,-289,-54,-978
214.567,-105,-37,-1034
215.112,-53,-14,-1038
215.235,-189,-4,-996
215.359,-417,-10,-882
215.483,-669,-13,-701
215.607,-853,-34,-494
215.731,-962,-36,-357
215.855,-986,-22,-321
215.979,-916,-21,-426
216.103,-712,-13,-638
216.227,-404,-9,-870
216.352,-141,26,-1008
217.175,-73,69,-1012
217.299,-269,64,-958
217.423,-561,45,-797
217.547,-822,25,-554
217.671,-976,8,-373
217.795,-982,-5,-353
217.919,-826,-5,-501
218.043,-584,-8,-741
218.168,-312,14,-924
218.295,-124,42,-1036
218.839,-32,69,-1020
218.963,-76,56,-1032
219.088,-120,60,-1046
219.211,-230,40,-1026
219.335,-464,17,-884
219.459,-722,-5,-654
219.584,-929,-18,-404
219.848,-984,1,-330
219.971,-826,-8,-537
220.095,-589,-41,-757
220.219,-281,-38,-954
220.343,-101,-17,-1022
221.027,-62,56,-1042
221.151,-178,37,-1020
221.275,-368,-6,-937
221.399,-624,-53,-732
221.523,-860,-58,-417
221.648,-1010,-49,-186
221.771,-1033,-38,-149
221.895,-928,-54,-368
222.019,-708,-52,-646
222.143,-396,-13,-908
222.267,-126,22,-1026
222.955,-36,5,-1045
223.079,-168,-24,-1004
223.203,-409,-54,-860
223.328,-722,-62,-574
223.451,-934,-40,-321
223.575,-1037,-10,-205
223.699,-962,-49,-318
223.823,-796,-106,-513
223.947,-537,-129,-753
224.071,-280,-126,-938
224.195,-114,-94,-1030
224.739,-12,-44,-1036
225.003,-110,22,-1034
225.128,-312,2,-938
225.251,-641,0,-690
225.375,-886,0,-421
225.639,-986,20,-330
225.763,-856,17,-513
225.887,-606,1,-760
226.011,-321,16,-969
226.135,-109,9,-1048
226.682,-46,-2,-1034
226.807,-178,-6,-1017
226.931,-382,-17,-940
227.055,-625,-22,-764
227.179,-828,-37,-562
227.443,-958,-49,-416
227.567,-908,-52,-504
227.691,-765,-56,-640
227.815,-540,-72,-825
227.939,-288,-62,-977
228.063,-121,-32,-1038
228.887,-82,49,-1028
229.011,-241,40,-994
229.135,-466,14,-888
229.259,-713,-9,-664
229.383,-898,-21,-418
229.647,-984,-26,-285
229.772,-882,-37,-473
229.895,-681,-54,-714
230.019,-388,-37,-934
230.143,-153,-5,-1020
230.687,-40,-10,-1018
230.811,-136,-28,-1026
230.938,-317,-64,-932
231.063,-596,-49,-738
231.188,-852,-56,-441
231.451,-1010,-60,-310
231.575,-833,-96,-522
231.699,-581,-81,-760
231.823,-262,-45,-948
231.947,-86,5,-1018
232.631,-16,9,-1045
232.755,-100,-21,-1040
232.879,-298,-37,-961
233.003,-577,-36,-733
233.127,-854,-16,-440
233.391,-985,-22,-304
233.515,-788,-45,-544
233.64,-521,14,-789
233.763,-220,89,-942
233.887,-32,121,-1009
234.011,57,76,-997
234.695,26,34,-1032
234.819,-116,50,-1001
234.943,-342,32,-926
235.067,-650,32,-732
235.194,-866,22,-513
235.319,-986,46,-353
235.443,-953,42,-372
235.567,-776,33,-553
235.691,-524,48,-789
235.815,-241,65,-960
235.939,-76,104,-1020
236.623,-70,22,-1050
236.747,-222,-32,-1001
236.871,-462,-72,-856
236.995,-717,-77,-620
237.119,-913,-40,-381
237.243,-988,-24,-286
237.367,-958,-26,-354
237.491,-858,-56,-545
237.615,-681,-61,-713
237.739,-441,-41,-877
237.863,-162,-5,-985
237.987,-2,24,-1022
238.111,52,13,-1037
238.515,-16,49,-1046
238.639,-153,58,-1030
238.763,-414,26,-910
238.887,-741,16,-677
239.011,-946,5,-442
239.135,-1012,30,-348
239.263,-893,-2,-470
239.387,-669,-33,-676
239.511,-377,-45,-878
239.635,-96,-25,-1012
239.759,52,-2,-1050
240.303,9,2,-1026
240.431,-90,29,-1024
240.555,-269,37,-962
240.679,-525,36,-821
240.803,-776,34,-593
240.927,-937,42,-412
241.191,-958,62,-348
241.315,-841,69,-513
241.439,-590,50,-741
241.563,-314,40,-944
241.687,-100,38,-1020
242.355,-21,-1,-1013
242.479,-140,-38,-1009
242.604,-344,-54,-954
242.727,-620,-56,-764
242.851,-837,-44,-546
243.115,-890,-14,-472
243.239,-710,-44,-666
243.363,-510,-20,-834
243.491,-277,-9,-992
243.615,-148,49,-1025
244.16,-13,41,-1034
244.283,-76,21,-1038
244.407,-232,30,-994
244.531,-445,30,-896
244.655,-680,29,-722
244.779,-857,6,-545
244.903,-952,-14,-414
245.027,-998,-12,-389
245.151,-913,-29,-480
245.275,-718,-29,-669
245.399,-453,-6,-846
245.523,-212,26,-993
245.647,-78,38,-1030
246.331,-6,-12,-1052
246.455,-116,-28,-1044
246.579,-333,-42,-970
246.703,-582,-37,-796
246.827,-785,-22,-608
246.951,-898,-13,-469
247.075,-917,-14,-478
247.199,-760,-46,-628
247.323,-484,-40,-838
247.447,-166,-9,-1005
247.574,6,38,-1052
247.699,54,48,-1049
248.244,-80,-28,-1033
248.367,-236,-74,-978
248.491,-460,-120,-854
248.615,-698,-116,-693
248.739,-850,-97,-540
249.003,-901,-86,-484
249.127,-802,-69,-612
249.251,-596,-42,-770
249.375,-353,0,-934
249.499,-114,24,-1024
249.623,-12,38,-1032
250.167,-60,-14,-1020
250.291,-201,-41,-1002
250.415,-449,-70,-885
250.539,-688,-62,-717
250.663,-874,-57,-521
250.927,-948,-36,-432
251.051,-829,-41,-558
251.175,-616,-53,-726
251.299,-288,-68,-914
251.423,-56,-64,-1000
252.091,-8,-20,-1057
252.215,-129,-4,-1050
252.339,-392,-9,-922
252.463,-669,-26,-662
252.587,-914,-6,-420
252.711,-984,6,-317
252.835,-940,9,-432
252.959,-746,-18,-628
253.083,-466,-17,-849
253.207,-190,-6,-1020
253.331,-18,0,-1062
253.455,29,-6,-1058
253.999,-42,-24,-1060
254.123,-165,-33,-1022
254.247,-432,-52,-898
254.371,-728,-37,-629
254.495,-936,-18,-413
254.759,-960,-9,-324
254.883,-810,-54,-498
255.007,-554,-61,-734
255.131,-258,-53,-989
255.255,-68,-10,-1058
255.939,-37,-18,-1052
256.066,-133,-13,-1032
256.191,-332,-1,-945
256.315,-570,-6,-737
256.439,-813,-4,-544
256.703,-960,2,-445
256.827,-841,-44,-538
256.951,-646,-46,-710
257.075,-388,-54,-874
257.199,-168,-13,-1010
257.883,-96,6,-1049
258.007,-278,-5,-992
258.131,-490,-14,-873
258.255,-713,-46,-669
258.379,-864,-57,-486
258.643,-916,-54,-442
258.767,-749,-64,-616
258.891,-476,-50,-826
259.015,-218,-33,-984
259.699,-56,-36,-1034
259.823,-137,-52,-1018
259.947,-298,-66,-962
260.071,-522,-73,-844
260.195,-732,-86,-676
260.322,-876,-84,-529
260.587,-929,-68,-480
260.711,-796,-73,-606
260.835,-568,-68,-782
260.959,-250,-58,-972
261.083,-69,-44,-1037
261.767,-21,1,-1032
261.891,-130,29,-1026
262.015,-358,41,-940
262.139,-617,25,-769
262.263,-837,-9,-549
262.387,-948,-21,-376
262.511,-986,-33,-329
262.635,-956,-9,-406
262.759,-780,-36,-600
262.883,-546,-18,-800
263.007,-265,-25,-968
263.131,-110,4,-1018
263.815,-53,-34,-1024
263.939,-208,-54,-981
264.063,-442,-96,-886
264.188,-682,-96,-709
264.318,-877,-92,-513
264.435,-966,-80,-356
264.563,-970,-76,-368
264.687,-828,-73,-526
264.811,-592,-72,-760
264.935,-262,-49,-945
265.059,-8,-37,-1030
265.603,70,-10,-1040
265.727,5,2,-1053
265.851,-150,-53,-1066
265.975,-369,-66,-972
266.099,-640,-78,-760
266.223,-845,-18,-498
266.347,-969,-14,-365
266.471,-966,-21,-377
266.595,-812,-40,-564
266.719,-562,-26,-758
266.843,-277,0,-965
266.967,-96,22,-1032
267.091,-10,24,-1062
267.619,-94,44,-1030
267.743,-256,56,-977
267.867,-502,45,-846
267.991,-732,28,-661
268.115,-886,16,-496
268.239,-914,9,-465
268.363,-864,16,-565
268.487,-664,10,-741
268.615,-400,18,-886
268.739,-137,16,-984
269.424,-4,20,-1050
269.547,-104,36,-1040
269.671,-310,29,-974
269.795,-601,-2,-789
269.919,-816,-52,-609
270.183,-920,-88,-508
270.307,-784,-84,-644
270.431,-552,-82,-820
270.555,-296,-77,-978
270.679,-150,-68,-1021
271.347,9,-5,-1022
271.471,-38,-5,-1013
271.595,-138,0,-1002
271.719,-334,-4,-949
271.843,-508,-14,-888
271.967,-634,-14,-810
272.231,-630,-25,-774
272.355,-437,-61,-870
272.479,-177,-108,-982
272.603,0,-121,-1020
273.535,-118,-37,-1025
273.659,-378,-4,-902
273.782,-673,57,-714
274.047,-856,169,-578
274.171,-677,186,-701
274.294,-426,205,-848
274.419,-134,178,-980
274.543,8,161,-1028
275.227,-30,92,-1076
275.35,-200,85,-1034
275.475,-470,70,-894
275.599,-697,45,-732
275.863,-704,18,-746
275.986,-533,-4,-860
276.111,-294,-10,-984
276.234,-108,-40,-1030
277.059,-126,20,-1010
277.183,-317,2,-972
277.307,-548,-24,-878
277.433,-742,-76,-762
277.698,-773,-76,-674
277.822,-574,-86,-809
277.947,-324,-102,-969
278.911,-145,-105,-1036
279.035,-290,-89,-973
279.159,-520,-81,-845
279.283,-721,-53,-684
279.546,-758,-62,-666
279.67,-540,-54,-826
279.795,-278,-68,-972
279.918,-76,-77,-1040
280.883,-73,-38,-1038
281.007,-277,-62,-977
281.13,-552,-78,-810
281.254,-794,-93,-618
281.519,-822,-60,-617
281.643,-664,-33,-764
281.767,-421,-28,-926
281.894,-205,-36,-1017
282.019,-68,-28,-1058
282.562,-108,-18,-1033
282.687,-234,-30,-1001
282.811,-421,-37,-921
282.935,-616,-38,-793
283.059,-772,-46,-660
283.182,-870,-53,-558
283.447,-838,-25,-581
283.571,-648,-32,-725
283.694,-374,-42,-912
283.819,-153,-57,-1018
284.503,-84,-17,-1034
284.626,-166,-21,-1012
284.75,-249,-53,-989
284.875,-410,-56,-914
284.999,-592,-72,-782
285.123,-796,-68,-608
285.246,-905,-90,-457
285.51,-869,-92,-484
285.634,-676,-84,-673
285.762,-386,-74,-909
285.886,-156,-41,-1033
286.011,-50,-6,-1062
286.698,-77,-24,-1026
286.823,-174,-57,-1013
286.946,-329,-108,-957
287.07,-508,-130,-856
287.194,-681,-134,-720
287.319,-810,-132,-625
287.583,-826,-114,-594
287.706,-718,-126,-705
287.831,-566,-122,-829
287.954,-382,-93,-942
288.079,-229,-34,-997
288.203,-106,-25,-1025
288.887,-120,-116,-1001
289.01,-296,-132,-940
289.134,-526,-144,-813
289.258,-757,-138,-621
289.382,-892,-137,-445
289.646,-950,-141,-378
289.771,-797,-129,-544
289.894,-537,-122,-769
290.018,-250,-112,-957
290.142,-94,-105,-1022
290.823,-77,-41,-1040
290.934,-260,-36,-965
291.058,-502,-29,-777
291.183,-796,-8,-504
291.306,-964,-22,-286
291.43,-1048,-17,-236
291.555,-829,-2,-478
291.678,-526,22,-781
291.802,-212,48,-1006
291.926,-114,65,-1045
292.19,-50,56,-1026
292.315,6,42,-1040
292.578,-117,5,-1020
292.702,-386,-18,-873
292.826,-718,-57,-606
292.951,-949,-45,-341
293.215,-986,-53,-284
293.338,-730,-96,-584
293.462,-440,-65,-852
293.586,-174,-33,-1033
294.271,-42,-14,-1042
294.394,-160,-18,-1020
294.521,-374,-26,-904
294.646,-686,-21,-650
294.77,-902,-25,-432
295.034,-944,4,-413
295.159,-726,-4,-645
295.283,-454,2,-872
295.406,-241,-4,-997
295.53,-134,32,-1008
295.654,-61,48,-1016
296.058,12,40,-990
296.182,17,0,-1018
296.306,-84,-58,-1017
298.67,-237,-98,-980
298.683,-549,-88,-794
298.684,-792,-53,-592
298.686,-754,-73,-604
298.686,-462,-46,-848
298.687,-134,-42,-978
298.688,48,-25,-965
298.691,1,-41,-1032
298.692,-38,-40,-1048
298.693,-101,-48,-1048
298.693,-174,-49,-1028
298.694,-264,-57,-1006
298.694,-388,-68,-978
298.695,-502,-70,-905
298.696,-613,-78,-836
298.699,-697,-97,-770
298.7,-749,-105,-720
298.963,-833,-93,-666
299.087,-822,-74,-678
299.211,-740,-82,-729
299.334,-577,-82,-825
299.459,-397,-88,-921
299.582,-261,-52,-984
299.706,-146,-32,-998
300.53,-124,-42,-1040
300.654,-304,-42,-998
300.778,-560,-58,-845
300.902,-774,-73,-677
301.167,-842,-98,-536
301.29,-713,-98,-645
301.417,-476,-89,-828
301.538,-214,-77,-1008
301.663,-32,-42,-1062
301.786,72,-6,-1056
302.19,25,29,-1014
302.314,-40,-2,-1030
302.438,-178,0,-1017
302.562,-372,-33,-921
302.686,-589,-26,-777
302.814,-796,-50,-589
302.938,-925,-48,-478
303.062,-866,-29,-504
303.186,-650,-5,-680
303.31,-368,22,-876
303.434,-186,24,-990
303.838,-50,5,-1042
303.962,-38,-33,-1036
304.366,-144,-73,-1024
304.49,-276,-86,-998
304.614,-473,-88,-886
304.738,-693,-112,-704
304.862,-876,-125,-500
305.127,-962,-144,-389
305.25,-842,-148,-525
305.374,-678,-154,-692
305.498,-440,-145,-872
305.622,-236,-128,-974
305.746,-57,-89,-1020
305.87,52,-60,-1036
306.554,12,42,-1034
306.678,-60,85,-1038
306.802,-178,101,-1012
306.929,-365,90,-958
307.07,-572,41,-840
307.194,-758,-24,-680
307.318,-884,-88,-514
307.442,-949,-121,-397
307.706,-957,-104,-392
307.83,-889,-80,-522
307.954,-673,-93,-722
308.078,-405,-108,-916
308.202,-161,-100,-996
308.326,-41,-45,-1025
309.01,37,-22,-1029
309.278,-42,-20,-1032
309.398,-145,-14,-1012
309.522,-289,-16,-977
309.646,-464,-42,-904
309.77,-624,-90,-816
309.894,-760,-117,-674
310.018,-873,-133,-550
310.142,-932,-133,-465
310.266,-917,-158,-521
310.39,-800,-189,-622
310.514,-565,-206,-802
310.638,-305,-170,-942
310.762,-70,-105,-1038
310.889,68,-60,-1066
311.014,120,-48,-1040
311.698,57,-86,-1022
311.822,-41,-120,-993
311.946,-222,-134,-958
312.07,-441,-120,-869
312.194,-677,-82,-737
312.318,-834,-96,-582
312.442,-928,-130,-468
312.706,-824,-166,-541
312.83,-665,-156,-688
312.954,-481,-134,-836
313.078,-282,-101,-970
313.202,-132,-73,-1029
313.326,-13,-61,-1061
313.59,41,-62,-1029
313.994,-12,-88,-1020
314.118,-84,-109,-1024
314.242,-200,-122,-1013
314.366,-354,-129,-956
314.49,-566,-105,-801
314.614,-737,-100,-646
314.738,-873,-105,-500
314.862,-921,-134,-430
315.11,-930,-126,-372
315.234,-809,-114,-481
315.358,-582,-85,-666
315.482,-273,-69,-894
315.606,-6,-57,-1024
315.73,133,-20,-1029
315.854,145,-18,-1025
316.398,12,-30,-1058
316.522,-136,-14,-1037
316.646,-382,24,-942
316.77,-669,2,-702
316.894,-858,-40,-486
317.018,-918,-74,-392
317.142,-850,-34,-513
317.266,-620,-22,-749
317.391,-376,25,-1077
317.514,-122,16,-1181
317.639,0,45,-1184
317.902,42,28,-1008
318.026,0,-21,-998
318.57,-148,-98,-1024
318.694,-322,-110,-933
318.818,-581,-116,-753
318.942,-817,-85,-514
319.066,-956,-68,-352
319.194,-990,-76,-312
319.318,-936,-93,-417
319.446,-734,-102,-601
319.57,-437,-42,-825
319.694,-150,17,-988
320.378,-81,1,-1036
320.502,-238,-38,-1002
320.627,-477,-72,-878
320.75,-710,-60,-714
320.874,-850,-41,-589
321.138,-816,-20,-650
321.262,-644,-8,-778
321.386,-394,4,-922
321.51,-122,6,-1010
322.334,-82,-66,-1018
322.458,-201,-101,-997
322.582,-433,-112,-914
322.706,-645,-101,-786
322.83,-824,-96,-624
323.094,-852,-94,-609
323.218,-664,-86,-782
323.342,-416,-44,-928
323.47,-168,-41,-1014
324.154,-108,-57,-1014
324.278,-269,-90,-982
324.402,-492,-116,-860
324.526,-738,-109,-685
324.65,-880,-88,-512
324.914,-888,-84,-493
325.038,-694,-97,-668
325.162,-382,-68,-849
325.286,-97,-53,-993
325.83,-22,-44,-1028
325.954,-120,-62,-1018
326.078,-281,-108,-964
326.202,-518,-150,-826
326.326,-744,-165,-634
326.45,-904,-148,-462
326.714,-870,-174,-480
326.883,-668,-198,-656
326.962,-360,-206,-878
327.086,-125,-190,-1006
327.773,-45,-93,-1044
327.898,-194,-78,-1014
328.022,-417,-93,-929
328.146,-661,-88,-756
328.27,-824,-90,-596
328.534,-892,-112,-529
328.658,-757,-116,-646
328.782,-494,-98,-802
328.906,-220,-53,-944
329.03,-29,-16,-1006
329.434,10,-6,-1044
329.558,-33,-40,-1049
329.682,-94,-66,-1058
329.806,-236,-90,-1005
329.93,-453,-109,-884
330.054,-705,-121,-697
330.178,-868,-102,-529
330.442,-773,-130,-552
330.566,-573,-122,-744
330.69,-325,-112,-926
330.814,-185,-56,-1029
331.358,-77,-14,-1050
331.482,-174,-41,-1029
331.606,-360,-90,-952
331.73,-562,-138,-817
331.858,-738,-138,-669
331.982,-838,-133,-569
332.106,-848,-134,-578
332.23,-749,-121,-680
332.354,-546,-100,-829
332.478,-309,-70,-956
332.602,-118,-60,-1012
333.006,-40,-72,-1012
333.13,-38,-61,-1020
333.254,-97,-32,-1029
333.378,-241,4,-993
333.502,-502,10,-838
333.626,-776,-22,-633
333.75,-912,-36,-489
334.014,-858,-41,-552
334.138,-690,-32,-732
334.262,-402,-25,-932
334.386,-173,5,-1034
334.93,-41,-9,-1057
335.054,-126,-25,-1030
335.178,-304,-45,-952
335.306,-557,-60,-774
335.43,-772,-78,-617
335.554,-898,-84,-504
335.818,-870,-50,-544
335.946,-674,-58,-736
336.07,-385,-60,-917
336.194,-130,-58,-1045
336.878,-162,-36,-1000
337.002,-397,-80,-905
337.126,-664,-121,-750
337.25,-826,-157,-613
337.514,-848,-128,-546
337.638,-753,-114,-648
337.762,-561,-96,-782
337.886,-318,-54,-917
338.01,-101,-18,-998
338.554,9,-20,-1052
338.678,-32,-9,-1068
338.802,-202,-17,-1022
338.926,-473,-17,-873
339.051,-756,-54,-664
339.174,-898,-78,-525
339.298,-916,-82,-486
339.422,-844,-74,-558
339.546,-684,-41,-713
339.67,-450,-36,-864
339.794,-181,-12,-1001
339.918,-28,-6,-1028
340.446,-66,-37,-1084
340.57,-226,-57,-1034
340.694,-452,-102,-908
340.818,-677,-129,-704
340.942,-809,-158,-572
341.066,-873,-157,-534
341.19,-789,-133,-633
341.314,-597,-106,-804
341.439,-338,-73,-1026
341.562,-137,-54,-1108
341.686,-60,-44,-1117
342.37,-60,-69,-1028
342.494,-213,-90,-986
342.618,-445,-112,-866
342.742,-693,-94,-709
342.866,-842,-81,-565
342.99,-898,-56,-528
343.114,-818,-58,-612
343.238,-617,-62,-773
343.362,-361,-62,-912
343.486,-141,-60,-1012
344.03,-65,-42,-1036
344.154,-189,-60,-1010
344.28,-388,-74,-928
344.41,-640,-89,-761
344.534,-794,-90,-610
344.798,-830,-84,-590
344.922,-669,-85,-725
345.046,-429,-37,-972
345.17,-198,-21,-1088
345.294,-78,5,-1122
345.838,-90,-44,-1040
345.962,-252,-52,-994
346.086,-470,-74,-884
346.21,-682,-85,-712
346.334,-834,-80,-540
346.598,-900,-68,-468
346.722,-736,-85,-634
346.846,-470,-77,-860
346.97,-209,-45,-1014
347.094,-58,5,-1029
347.218,-32,-1,-1029
347.622,-149,-34,-1149
347.746,-298,-41,-1108
347.87,-512,-66,-997
347.994,-652,-66,-744
348.118,-805,-80,-588
348.242,-916,-92,-466
348.369,-956,-94,-474
348.494,-837,-94,-576
348.618,-573,-60,-800
348.742,-297,-17,-1000
348.866,-110,21,-1100
348.99,-42,28,-1093
349.534,20,-1,-1044
349.658,-2,-9,-1033
349.782,-69,-49,-1113
349.906,-228,-86,-1070
350.03,-457,-114,-970
